timestamp    		accx    	accy    	accz    	gps_longtitude  gps_latitude   velx  vely          posx          posy
1615191800.717549774 -0.091887 -0.006043 -0.157154  103.931208 30.747951   0.021246 0.937717  -0.078045 1.831086
1615191800.735056871 -0.106367 -0.009389 -0.182015  103.931208 30.747951   0.017161 0.935109  -0.071476 1.803632
1615191800.752549157 -0.112486 -0.009696 -0.206608  103.931208 30.747951   0.012618 0.932501  -0.073418 1.818901
1615191800.770048866 -0.123386 -0.004307 -0.190566  103.931208 30.747951   0.012618 0.932501  -0.073418 1.818901
1615191800.787554649 -0.116903 0.010719 -0.190424  103.931208 30.747951   0.008219 0.930406  -0.075413 1.834172
1615191800.805048896 -0.116453 0.025866 -0.192346  103.931208 30.747952   0.004412 0.929028  -0.077454 1.849455
1615191800.822549219 -0.114570 0.024492 -0.207088  103.931208 30.747952   0.000469 0.927771  -0.079543 1.864751
1615191800.840048019 -0.109865 0.013990 -0.187545  103.931208 30.747952   -0.003161 0.925842  -0.081674 1.880059
1615191800.857548830 -0.105527 0.012738 -0.191811  103.931208 30.747952   -0.006470 0.923972  -0.083843 1.895370
1615191800.875053092 -0.102191 0.012249 -0.193753  103.931208 30.747952   -0.006470 0.923972  -0.083843 1.895370
1615191800.892549286 -0.103398 0.011198 -0.183413  103.931208 30.747952   -0.013429 0.920731  -0.088296 1.926003
1615191800.910049566 -0.103592 0.019028 -0.168825  103.931208 30.747952   -0.016490 0.919322  -0.090237 1.936733
1615191800.927549271 -0.101658 0.032985 -0.162400  103.931208 30.747952   -0.016490 0.919322  -0.090237 1.936733
1615191800.945049542 -0.088832 0.030811 -0.183706  103.931208 30.747953   -0.018658 0.917576  -0.092438 1.952198
1615191800.962555060 -0.084705 0.028667 -0.166740  103.931208 30.747953   -0.020341 0.915409  -0.094668 1.967682
1615191800.980049970 -0.088602 0.026905 -0.179064  103.931208 30.747953   -0.022373 0.913337  -0.096925 1.983175
1615191800.997549696 -0.089847 0.025400 -0.180729  103.931208 30.747953   -0.024595 0.911265  -0.099220 1.998676
1615191801.015050639 -0.085053 0.026346 -0.176199  103.931208 30.747953   -0.024595 0.911265  -0.099220 1.998676
1615191801.032549669 -0.081069 0.041443 -0.152174  103.931208 30.747953   -0.028182 0.908776  -0.103903 2.029715
1615191801.050049505 -0.082344 0.060788 -0.183348  103.931208 30.747953   -0.030203 0.908308  -0.106292 2.045275
1615191801.067549472 -0.078895 0.058890 -0.214857  103.931208 30.747953   -0.030203 0.908308  -0.106292 2.045275
1615191801.085049803 -0.066587 0.058274 -0.202068  103.931207 30.747954   -0.031781 0.907196  -0.108713 2.060860
1615191801.102549331 -0.058191 0.062783 -0.198579  103.931207 30.747954   -0.032962 0.906425  -0.111153 2.076469
1615191801.120049429 -0.055697 0.062788 -0.214437  103.931207 30.747954   -0.034688 0.907063  -0.113092 2.088447
1615191801.137548944 -0.053720 0.061683 -0.218520  103.931207 30.747954   -0.037170 0.909452  -0.115352 2.106950
1615191801.155049602 -0.046247 0.057430 -0.218758  103.931207 30.747954   -0.039350 0.912017  -0.124478 2.107987
1615191801.172549970 -0.040098 0.053103 -0.229180  103.931207 30.747954   -0.041487 0.914614  -0.126740 2.126798
1615191801.190049391 -0.035863 0.056727 -0.239322  103.931207 30.747954   -0.043250 0.917538  -0.129014 2.145626
1615191801.207549473 -0.026062 0.058762 -0.234720  103.931207 30.747954   -0.043250 0.917538  -0.129014 2.145626
1615191801.225049726 -0.010924 0.042750 -0.239407  103.931207 30.747954   -0.044658 0.920107  -0.131297 2.164479
1615191801.242549969 0.008128 0.034282 -0.248030  103.931207 30.747955   -0.045567 0.921909  -0.133576 2.183347
1615191801.260052988 0.016266 0.030946 -0.211542  103.931207 30.747955   -0.045929 0.923797  -0.135844 2.202224
1615191801.277550247 0.030707 0.034841 -0.182079  103.931207 30.747955   -0.046117 0.925832  -0.138095 2.221113
1615191801.295050186 0.033713 0.035160 -0.194441  103.931207 30.747955   -0.046305 0.927915  -0.140324 2.240015
1615191801.312550964 0.035613 0.026542 -0.185184  103.931207 30.747955   -0.046305 0.927915  -0.140324 2.240015
1615191801.330050798 0.040537 0.014520 -0.180168  103.931207 30.747955   -0.045934 0.928105  -0.143598 2.270429
1615191801.347553045 0.051443 0.006386 -0.224051  103.931207 30.747955   -0.045934 0.928105  -0.143598 2.270429
1615191801.365095410 0.057417 0.007109 -0.206438  103.931207 30.747956   -0.044948 0.927596  -0.145252 2.287031
1615191801.382601491 0.073431 -0.001185 -0.195890  103.931207 30.747956   -0.043788 0.927004  -0.146875 2.303636
1615191801.400095223 0.077896 0.003621 -0.155690  103.931207 30.747956   -0.042416 0.926572  -0.148462 2.320238
1615191801.417593457 0.090596 0.010888 -0.190306  103.931207 30.747956   -0.040755 0.926493  -0.150010 2.336845
1615191801.435096445 0.090879 0.013583 -0.214588  103.931207 30.747956   -0.039307 0.926639  -0.151520 2.353458
1615191801.452593615 0.083532 0.017847 -0.205348  103.931207 30.747956   -0.039307 0.926639  -0.151520 2.353458
1615191801.470093022 0.082325 0.004724 -0.177297  103.931207 30.747956   -0.038314 0.926646  -0.152996 2.370081
1615191801.487595769 0.094551 -0.005042 -0.138094  103.931207 30.747956   -0.036992 0.925833  -0.154443 2.386706
1615191801.505108720 0.100964 -0.005010 -0.159330  103.931207 30.747957   -0.035045 0.925150  -0.155851 2.403321
1615191801.522596517 0.109122 -0.005125 -0.141890  103.931207 30.747957   -0.032915 0.924750  -0.156875 2.415780
1615191801.540093445 0.113275 -0.000539 -0.082123  103.931207 30.747957   -0.030315 0.925047  -0.157612 2.432240
1615191801.557594713 0.110597 0.002125 -0.084090  103.931207 30.747957   -0.028014 0.925267  -0.158303 2.448703
1615191801.575094003 0.113518 0.004620 -0.104824  103.931207 30.747957   -0.025340 0.925465  -0.148125 2.434872
1615191801.592594576 0.125654 0.005406 -0.105001  103.931207 30.747957   -0.025340 0.925465  -0.148125 2.434872
1615191801.610096675 0.127967 0.005033 -0.081545  103.931207 30.747957   -0.022114 0.925382  -0.148598 2.451179
1615191801.627591014 0.125872 -0.003160 -0.034945  103.931207 30.747957   -0.019168 0.925230  -0.149018 2.467483
1615191801.645095980 0.124374 -0.009501 0.015963  103.931207 30.747957   -0.016398 0.924662  -0.149389 2.483784
1615191801.662594081 0.124989 -0.011609 0.036473  103.931207 30.747957   -0.013604 0.924065  -0.149713 2.500081
1615191801.680057449 0.121259 -0.010654 0.010636  103.931207 30.747958   -0.011015 0.923768  -0.149991 2.516369
1615191801.697594182 0.120962 -0.002554 0.024330  103.931207 30.747958   -0.008356 0.923692  -0.150225 2.532655
1615191801.715095002 0.121747 0.000055 -0.001260  103.931207 30.747958   -0.005681 0.923970  -0.150336 2.545166
1615191801.732555890 0.119863 0.005535 -0.038174  103.931207 30.747958   -0.005681 0.923970  -0.150336 2.545166
1615191801.750091559 0.123141 0.003734 -0.083273  103.931207 30.747958   -0.003388 0.924608  -0.151282 2.563600
1615191801.767595504 0.121090 -0.004292 -0.073054  103.931207 30.747958   -0.000883 0.924784  -0.152178 2.582038
1615191801.785094642 0.113345 -0.008149 -0.090437  103.931207 30.747958   0.001302 0.924825  -0.153029 2.600470
1615191801.802593756 0.106683 -0.008803 -0.141056  103.931207 30.747959   0.003168 0.924908  -0.153841 2.618892
1615191801.820093384 0.110191 -0.009209 -0.153516  103.931207 30.747959   0.005443 0.925004  -0.154614 2.637313
1615191801.837593164 0.124667 -0.004712 -0.164646  103.931207 30.747959   0.008292 0.925286  -0.155336 2.655729
1615191801.855096172 0.129374 -0.000719 -0.188839  103.931207 30.747959   0.010976 0.925782  -0.155999 2.674147
1615191801.872590513 0.118930 -0.002409 -0.182264  103.931207 30.747959   0.012853 0.925775  -0.156613 2.692571
1615191801.890099440 0.112449 -0.015016 -0.193322  103.931207 30.747959   0.012853 0.925775  -0.156613 2.692571
1615191801.907555783 0.117239 -0.013236 -0.191165  103.931207 30.747959   0.014990 0.925434  -0.157191 2.710984
1615191801.925071181 0.117792 -0.010173 -0.224801  103.931207 30.747959   0.017890 0.925445  -0.157258 2.725163
1615191801.942594933 0.119556 -0.009280 -0.246162  103.931207 30.747960   0.021384 0.925306  -0.156170 2.743832
1615191801.960094300 0.120418 -0.007049 -0.199474  103.931207 30.747960   0.024810 0.925182  -0.155033 2.762497
1615191801.977596138 0.108995 -0.004562 -0.235075  103.931207 30.747960   0.027807 0.925141  -0.153851 2.781159
1615191801.995096453 0.106068 -0.000380 -0.218769  103.931207 30.747960   0.030769 0.925253  -0.144307 2.816959
1615191802.012595246 0.105889 0.001609 -0.143456  103.931207 30.747960   0.033788 0.925336  -0.142991 2.835619
1615191802.030094115 0.097316 0.003359 -0.148239  103.931207 30.747960   0.033788 0.925336  -0.142991 2.835619
1615191802.047565008 0.089221 -0.004193 -0.135433  103.931207 30.747961   0.036357 0.925285  -0.141638 2.854282
1615191802.065093366 0.092258 -0.003968 -0.154902  103.931207 30.747961   0.038902 0.924972  -0.140253 2.872942
1615191802.082594557 0.090870 -0.005234 -0.160927  103.931207 30.747961   0.041736 0.924836  -0.138831 2.891596
1615191802.100102503 0.084731 -0.009188 -0.159920  103.931207 30.747961   0.044160 0.924453  -0.137373 2.910247
1615191802.117555661 0.081079 -0.009314 -0.178235  103.931207 30.747961   0.046057 0.923926  -0.136002 2.924198
1615191802.135095101 0.069714 0.006997 -0.130547  103.931207 30.747961   0.047411 0.923190  -0.134333 2.941592
1615191802.152593719 0.068708 0.004723 -0.182083  103.931207 30.747962   0.048819 0.922357  -0.132640 2.958995
1615191802.170092878 0.077675 0.006509 -0.184151  103.931207 30.747962   0.048819 0.922357  -0.132640 2.958995
1615191802.187556990 0.075407 0.011088 -0.171547  103.931207 30.747962   0.050792 0.921642  -0.130914 2.976402
1615191802.205094538 0.060932 0.004644 -0.151154  103.931207 30.747962   0.052159 0.921042  -0.129154 2.993813
1615191802.222595758 0.055582 0.001239 -0.121075  103.931207 30.747962   0.052998 0.919987  -0.127373 3.011228
1615191802.240091121 0.052175 0.004203 -0.085640  103.931207 30.747962   0.053963 0.919171  -0.125579 3.028639
1615191802.257594886 0.050721 0.009757 -0.055082  103.931207 30.747962   0.054982 0.918821  -0.123767 3.046055
1615191802.275095503 0.043568 0.013009 -0.094767  103.931207 30.747963   0.055807 0.918394  -0.121938 3.063478
1615191802.292594546 0.038404 0.015230 -0.050818  103.931207 30.747963   0.056429 0.917906  -0.120092 3.080908
1615191802.310093875 0.037414 0.014455 -0.024771  103.931207 30.747963   0.056429 0.917906  -0.120092 3.080908
1615191802.327595371 0.039346 0.015726 -0.049984  103.931207 30.747963   0.056737 0.917493  -0.118921 3.093892
1615191802.345095552 0.045139 0.015243 -0.063427  103.931207 30.747963   0.056404 0.917261  -0.118609 3.110884
1615191802.362591063 0.046502 0.015627 -0.113319  103.931207 30.747963   0.056234 0.917005  -0.118275 3.127888
1615191802.380096321 0.041875 0.017424 -0.109703  103.931207 30.747963   0.055930 0.916893  -0.117921 3.144899
1615191802.397593021 0.040037 0.017107 -0.120833  103.931207 30.747963   0.055454 0.916662  -0.117552 3.161919
1615191802.415093587 0.046572 0.022556 -0.092655  103.931207 30.747964   0.055370 0.916635  -0.117169 3.178941
1615191802.432594456 0.049975 0.025813 -0.133276  103.931207 30.747964   0.055430 0.917021  -0.120280 3.185193
1615191802.450093580 0.057959 0.029810 -0.129344  103.931207 30.747964   0.055430 0.917021  -0.120280 3.185193
1615191802.467597060 0.056657 0.028081 -0.095508  103.931207 30.747964   0.055681 0.917382  -0.119950 3.202300
1615191802.485091022 0.055300 0.024767 -0.099689  103.931207 30.747964   0.055500 0.917426  -0.119595 3.219418
1615191802.502594551 0.054511 0.023773 -0.051341  103.931207 30.747964   0.055424 0.917518  -0.119221 3.236545
1615191802.520092964 0.053902 0.023374 -0.077602  103.931207 30.747964   0.055689 0.917997  -0.118805 3.249647
1615191802.537594543 0.051702 0.031067 -0.120218  103.931207 30.747964   0.056380 0.919803  -0.117344 3.267869
1615191802.555094118 0.045343 0.043784 -0.100052  103.931207 30.747964   0.056380 0.919803  -0.117344 3.267869
1615191802.572595395 0.049224 0.038458 -0.087755  103.931207 30.747965   0.057920 0.922962  -0.114372 3.304377
1615191802.590095199 0.058976 0.029976 -0.126585  103.931207 30.747965   0.059182 0.923994  -0.112852 3.322648
1615191802.607590588 0.053871 0.021673 -0.146726  103.931207 30.747965   0.059182 0.923994  -0.112852 3.322648
1615191802.625094520 0.046645 0.009010 -0.118398  103.931207 30.747965   0.059847 0.924737  -0.111306 3.340924
1615191802.642593275 0.042292 0.005228 -0.062822  103.931207 30.747965   0.060324 0.925141  -0.109744 3.359199
1615191802.660093833 0.042080 0.003539 -0.070721  103.931207 30.747965   0.060958 0.925786  -0.108170 3.377475
1615191802.677594394 0.045149 0.009179 -0.094631  103.931208 30.747966   0.061785 0.926822  -0.106579 3.395751
1615191802.695095384 0.051887 0.015279 -0.127518  103.931208 30.747966   0.062960 0.927811  -0.104964 3.414035
1615191802.712597074 0.057096 0.017918 -0.125559  103.931208 30.747966   0.062960 0.927811  -0.104964 3.414035
1615191802.730090604 0.045992 0.005492 -0.138765  103.931208 30.747966   0.066042 0.927616  -0.101853 3.445280
1615191802.747594785 0.041418 -0.003491 -0.078676  103.931208 30.747966   0.066042 0.927616  -0.101853 3.445280
1615191802.765095411 0.036234 -0.015142 -0.076311  103.931208 30.747966   0.067483 0.926445  -0.100073 3.462789
1615191802.782595199 0.032810 -0.018790 -0.082068  103.931208 30.747966   0.069061 0.925564  -0.098281 3.480281
1615191802.800093673 0.035966 -0.013979 -0.060116  103.931208 30.747966   0.070669 0.924937  -0.096476 3.497766
1615191802.817593501 0.029981 -0.009666 -0.072700  103.931208 30.747967   0.072201 0.924591  -0.094653 3.515252
1615191802.835097481 0.024777 -0.012211 -0.073855  103.931208 30.747967   0.073214 0.923950  -0.092824 3.532731
1615191802.852596430 0.018822 -0.014920 -0.038126  103.931208 30.747967   0.073214 0.923950  -0.092824 3.532731
1615191802.870094111 0.020926 -0.012721 -0.004218  103.931208 30.747967   0.074053 0.923117  -0.086303 3.548537
1615191802.887593225 0.023056 -0.011479 -0.004257  103.931208 30.747967   0.075045 0.922530  -0.084652 3.565891
1615191802.905092787 0.016678 -0.013925 -0.057379  103.931208 30.747967   0.075879 0.921766  -0.082988 3.583241
1615191802.922593871 0.000655 -0.021886 -0.016215  103.931208 30.747967   0.074992 0.920520  -0.082239 3.596480
1615191802.940093497 -0.003465 -0.025017 -0.046238  103.931208 30.747967   0.072612 0.919238  -0.082876 3.614586
1615191802.957595620 -0.002267 -0.018013 -0.016491  103.931208 30.747968   0.070673 0.918239  -0.083514 3.632680
1615191802.975055560 -0.004712 -0.013075 -0.035611  103.931208 30.747968   0.068564 0.917575  -0.084154 3.650772
1615191802.992593869 -0.007417 -0.019948 -0.062816  103.931208 30.747968   0.068564 0.917575  -0.084154 3.650772
1615191803.010094061 -0.001056 -0.019698 -0.060261  103.931208 30.747968   0.066628 0.916287  -0.084802 3.668856
1615191803.027593787 0.003237 -0.013428 -0.046982  103.931208 30.747968   0.065097 0.915474  -0.085452 3.686927
1615191803.045093246 0.002912 -0.014475 -0.081875  103.931208 30.747968   0.063536 0.914786  -0.086094 3.704999
1615191803.062595625 -0.001697 -0.024900 -0.045719  103.931208 30.747968   0.062007 0.913648  -0.086733 3.723065
1615191803.080096507 -0.008127 -0.038402 -0.055027  103.931208 30.747969   0.059895 0.911550  -0.087380 3.741106
1615191803.097594859 -0.009321 -0.059391 -0.056591  103.931208 30.747969   0.058099 0.909440  -0.088038 3.759111
1615191803.115093513 -0.008302 -0.061159 -0.082724  103.931208 30.747969   0.057786 0.909097  -0.087643 3.774495
1615191803.132594853 -0.006744 -0.059564 -0.117847  103.931208 30.747969   0.057786 0.909097  -0.087643 3.774495
1615191803.150056049 -0.006664 -0.072963 -0.142845  103.931208 30.747969   0.057963 0.909584  -0.085232 3.795487
1615191803.167594644 -0.002717 -0.095731 -0.150040  103.931208 30.747969   0.058276 0.909277  -0.082822 3.816448
1615191803.185093237 -0.002181 -0.108806 -0.112219  103.931208 30.747969   0.058569 0.908165  -0.080410 3.837363
1615191803.202596192 -0.007389 -0.121581 -0.099718  103.931208 30.747970   0.058639 0.906900  -0.078001 3.858217
1615191803.220094448 -0.016668 -0.129259 -0.105805  103.931208 30.747970   0.058072 0.905182  -0.075602 3.879013
1615191803.237597826 -0.029026 -0.165083 -0.057623  103.931208 30.747970   0.057535 0.902765  -0.073221 3.899740
1615191803.255094202 -0.027178 -0.172295 -0.060234  103.931208 30.747970   0.057210 0.900159  -0.070853 3.920385
1615191803.272603987 -0.026954 -0.195291 -0.031153  103.931208 30.747971   0.057080 0.896833  -0.065499 3.972761
1615191803.290055755 -0.028671 -0.224468 -0.043313  103.931208 30.747971   0.057080 0.896833  -0.065499 3.972761
1615191803.307603266 -0.033631 -0.253407 -0.061235  103.931208 30.747971   0.056985 0.892719  -0.062973 3.993278
1615191803.325097196 -0.034627 -0.264107 -0.101141  103.931208 30.747971   0.056739 0.887754  -0.061081 4.007986
1615191803.342568029 -0.038363 -0.281234 -0.083767  103.931208 30.747971   0.056687 0.882092  -0.058546 4.025895
1615191803.360102025 -0.042387 -0.295488 -0.063931  103.931208 30.747971   0.056038 0.875692  -0.056032 4.043667
1615191803.377593425 -0.055225 -0.334077 -0.050234  103.931208 30.747971   0.055286 0.868576  -0.053547 4.061297
1615191803.395093085 -0.052225 -0.336790 -0.042510  103.931208 30.747972   0.054893 0.862114  -0.051083 4.078784
1615191803.412593458 -0.044932 -0.338001 -0.014791  103.931208 30.747972   0.054746 0.855598  -0.048634 4.096136
1615191803.430103986 -0.046315 -0.349771 -0.008720  103.931208 30.747972   0.054746 0.855598  -0.048634 4.096136
1615191803.447592061 -0.054689 -0.372075 -0.032598  103.931208 30.747972   0.054219 0.848545  -0.046203 4.113344
1615191803.465056011 -0.054195 -0.386036 -0.016928  103.931208 30.747972   0.053372 0.840539  -0.043794 4.130398
1615191803.482595613 -0.044832 -0.408256 -0.027750  103.931208 30.747972   0.053202 0.831927  -0.041406 4.147278
1615191803.500093699 -0.038318 -0.416009 -0.059742  103.931208 30.747972   0.053171 0.823520  -0.039025 4.163989
1615191803.517592937 -0.036743 -0.425838 -0.059165  103.931208 30.747973   0.052476 0.814424  -0.037381 4.176288
1615191803.535093214 -0.041209 -0.441380 -0.038605  103.931208 30.747973   0.051019 0.804002  -0.036355 4.191897
1615191803.552593409 -0.044828 -0.446585 -0.033859  103.931208 30.747973   0.049276 0.793589  -0.035346 4.207322
1615191803.570091754 -0.048123 -0.460906 -0.066195  103.931208 30.747973   0.049276 0.793589  -0.035346 4.207322
1615191803.587555796 -0.038442 -0.469536 -0.061595  103.931208 30.747973   0.047846 0.782793  -0.034363 4.222562
1615191803.605100018 -0.037209 -0.471194 -0.063776  103.931208 30.747973   0.046811 0.772063  -0.033391 4.237614
1615191803.622595147 -0.036004 -0.472587 -0.064056  103.931208 30.747973   0.045660 0.761428  -0.032429 4.252468
1615191803.640092847 -0.036713 -0.469841 -0.005239  103.931208 30.747973   0.044358 0.751348  -0.031479 4.267139
1615191803.657604043 -0.039063 -0.452946 -0.009589  103.931208 30.747973   0.042964 0.741792  -0.030546 4.281635
1615191803.675093821 -0.045120 -0.446911 -0.055149  103.931208 30.747974   0.041557 0.732055  -0.029632 4.295960
1615191803.692595881 -0.046101 -0.445893 0.025920  103.931208 30.747974   0.040082 0.722248  -0.026344 4.302011
1615191803.710093072 -0.049985 -0.451601 0.016933  103.931208 30.747974   0.040082 0.722248  -0.026344 4.302011
1615191803.727597830 -0.045310 -0.453443 0.002846  103.931208 30.747974   0.038476 0.712650  -0.026177 4.312336
1615191803.745092640 -0.043853 -0.448546 -0.004457  103.931208 30.747974   0.037177 0.703955  -0.026803 4.325504
1615191803.762593635 -0.043019 -0.443886 -0.001385  103.931208 30.747974   0.035766 0.695528  -0.027444 4.338498
1615191803.780092718 -0.039157 -0.430334 0.009140  103.931208 30.747974   0.034527 0.687558  -0.028100 4.351323
1615191803.797593480 -0.039648 -0.427766 -0.071178  103.931208 30.747974   0.033275 0.679623  -0.028769 4.363985
1615191803.815104522 -0.040106 -0.419731 0.004446  103.931208 30.747974   0.031813 0.671668  -0.029457 4.376483
1615191803.832597470 -0.036355 -0.426016 -0.080542  103.931208 30.747974   0.030874 0.663178  -0.030161 4.388811
1615191803.850093849 -0.035329 -0.429431 -0.046099  103.931208 30.747974   0.030874 0.663178  -0.030161 4.388811
1615191803.867593332 -0.034951 -0.417042 -0.042322  103.931208 30.747975   0.029735 0.654960  -0.030876 4.400967
1615191803.885094007 -0.029552 -0.406028 -0.063740  103.931208 30.747975   0.028627 0.647290  -0.031603 4.412961
1615191803.902595256 -0.023779 -0.401030 0.022987  103.931208 30.747975   0.027924 0.639785  -0.032344 4.424801
1615191803.920093114 -0.023467 -0.392578 0.008837  103.931208 30.747975   0.026993 0.631850  -0.033246 4.432826
1615191803.937591310 -0.026567 -0.391340 -0.055098  103.931208 30.747975   0.025970 0.622958  -0.034240 4.441785
1615191803.955055529 -0.026457 -0.391326 -0.040133  103.931208 30.747975   0.025970 0.622958  -0.034240 4.441785
1615191803.972594187 -0.028667 -0.394790 -0.041542  103.931208 30.747975   0.023860 0.604990  -0.036259 4.459235
1615191803.990092865 -0.022428 -0.380781 -0.045763  103.931208 30.747975   0.023860 0.604990  -0.036259 4.459235
1615191804.007581166 -0.016172 -0.360004 -0.077519  103.931208 30.747975   0.023168 0.596918  -0.037284 4.467732
1615191804.025056322 -0.016257 -0.336591 -0.091196  103.931208 30.747975   0.022681 0.589526  -0.038315 4.476091
1615191804.042592987 -0.018657 -0.329531 -0.007900  103.931208 30.747975   0.021888 0.582530  -0.039350 4.484330
1615191804.060090427 -0.023326 -0.319722 0.016945  103.931208 30.747975   0.020973 0.575498  -0.040393 4.492445
1615191804.077596717 -0.024541 -0.321552 -0.094343  103.931208 30.747975   0.020086 0.568223  -0.041448 4.500434
1615191804.095104027 -0.019902 -0.327459 -0.097456  103.931208 30.747976   0.019531 0.560641  -0.042508 4.508292
1615191804.112556958 -0.011178 -0.324000 -0.101529  103.931208 30.747976   0.019531 0.560641  -0.042508 4.508292
1615191804.130054436 -0.001662 -0.317462 -0.060453  103.931208 30.747975   0.019440 0.547204  -0.063174 4.478395
1615191804.147593718 0.001229 -0.302261 -0.035922  103.931208 30.747975   0.019440 0.547204  -0.063174 4.478395
1615191804.165092949 0.006039 -0.294878 -0.023293  103.931208 30.747975   0.019483 0.541397  -0.062937 4.486724
1615191804.182554439 0.000630 -0.280609 -0.004933  103.931208 30.747975   0.019437 0.535863  -0.062695 4.494944
1615191804.200096446 -0.013416 -0.287538 -0.048329  103.931208 30.747975   0.018628 0.529988  -0.062461 4.503056
1615191804.217596225 -0.013620 -0.293112 -0.002671  103.931208 30.747976   0.018243 0.523500  -0.062238 4.511048
1615191804.235088166 0.002794 -0.285849 -0.032448  103.931208 30.747976   0.018790 0.517915  -0.062008 4.518923
1615191804.252555873 0.016271 -0.268841 -0.008244  103.931208 30.747976   0.018790 0.517915  -0.062008 4.518923
1615191804.270053951 0.017171 -0.261054 -0.018456  103.931208 30.747976   0.019522 0.507482  -0.061513 4.534377
1615191804.287597452 -0.001804 -0.264769 -0.054737  103.931208 30.747976   0.019522 0.507482  -0.061513 4.534377
1615191804.305098327 -0.008777 -0.268384 -0.133324  103.931208 30.747976   0.018701 0.501783  -0.061265 4.541947
1615191804.322555870 -0.013960 -0.275686 -0.095655  103.931208 30.747976   0.018141 0.495455  -0.061091 4.547548
1615191804.340056243 -0.007585 -0.278889 -0.109444  103.931208 30.747976   0.017898 0.488755  -0.061127 4.554596
1615191804.357592703 -0.000325 -0.268629 -0.104618  103.931208 30.747976   0.017920 0.482632  -0.061163 4.561534
1615191804.375060870 0.000474 -0.262727 -0.072630  103.931208 30.747976   0.018036 0.476735  -0.061194 4.568371
1615191804.392594728 -0.001123 -0.252950 -0.064621  103.931208 30.747976   0.018036 0.476735  -0.061194 4.568371
1615191804.410095812 -0.010415 -0.250220 -0.061361  103.931208 30.747976   0.017085 0.465254  -0.061263 4.581750
1615191804.427590698 -0.025245 -0.247972 -0.085487  103.931208 30.747976   0.017085 0.465254  -0.061263 4.581750
1615191804.445095132 -0.027433 -0.251588 -0.049500  103.931208 30.747976   0.016093 0.459382  -0.061320 4.588287
1615191804.462594337 -0.025433 -0.251709 -0.081613  103.931208 30.747976   0.015719 0.453412  -0.061390 4.594725
1615191804.480113967 -0.019226 -0.256680 -0.033100  103.931208 30.747976   0.015336 0.447413  -0.061462 4.601054
1615191804.497592796 -0.024395 -0.244270 -0.011182  103.931208 30.747976   0.014647 0.441896  -0.061544 4.607285
1615191804.515094687 -0.032454 -0.242030 -0.028419  103.931208 30.747976   0.013486 0.436875  -0.061879 4.612468
1615191804.532597458 -0.037942 -0.238398 0.017923  103.931208 30.747976   0.013486 0.436875  -0.061879 4.612468
1615191804.550093022 -0.030535 -0.230059 0.000743  103.931208 30.747977   0.012387 0.432517  -0.063029 4.621825
1615191804.567594569 -0.027566 -0.229303 0.028034  103.931208 30.747977   0.011807 0.428455  -0.072431 4.642679
1615191804.585092558 -0.025667 -0.228563 0.017296  103.931208 30.747977   0.011140 0.424246  -0.073619 4.651930
1615191804.602592513 -0.025404 -0.222205 0.024763  103.931208 30.747977   0.010446 0.420268  -0.074814 4.661093
1615191804.620096203 -0.032985 -0.222811 0.021978  103.931208 30.747977   0.009337 0.416172  -0.076019 4.670172
1615191804.637592932 -0.028328 -0.221666 0.053757  103.931208 30.747977   0.008566 0.411959  -0.077243 4.679164
1615191804.655055273 -0.025079 -0.218982 -0.009415  103.931208 30.747977   0.008143 0.408052  -0.078478 4.688061
1615191804.672595258 -0.021516 -0.212155 -0.025219  103.931208 30.747977   0.008143 0.408052  -0.078478 4.688061
1615191804.690093994 -0.022205 -0.214949 -0.039207  103.931208 30.747977   0.007611 0.404368  -0.079719 4.696875
1615191804.707594040 -0.024104 -0.212764 -0.049119  103.931208 30.747977   0.006842 0.400189  -0.080964 4.705613
1615191804.725092580 -0.023729 -0.210142 0.026258  103.931208 30.747977   0.006315 0.396274  -0.081646 4.712832
1615191804.742605287 -0.019133 -0.205303 0.027592  103.931208 30.747977   0.006301 0.392423  -0.081198 4.722457
1615191804.760055269 -0.018774 -0.198570 -0.019316  103.931208 30.747978   0.006058 0.388848  -0.080757 4.732000
1615191804.777595725 -0.013095 -0.192430 0.007793  103.931208 30.747978   0.006078 0.385225  -0.080323 4.741467
1615191804.795094786 -0.010183 -0.192658 -0.037561  103.931208 30.747978   0.006236 0.381466  -0.079890 4.750857
1615191804.812605192 -0.004942 -0.190872 -0.048922  103.931208 30.747978   0.006236 0.381466  -0.079890 4.750857
1615191804.830097140 -0.002033 -0.191257 -0.026155  103.931208 30.747978   0.006422 0.377783  -0.079455 4.760169
1615191804.847599072 0.000846 -0.181588 -0.024529  103.931208 30.747978   0.006645 0.374143  -0.079017 4.769408
1615191804.865093365 0.000004 -0.179623 -0.016443  103.931208 30.747978   0.006868 0.370888  -0.078576 4.778578
1615191804.882620664 0.006719 -0.174681 -0.015026  103.931208 30.747978   0.007163 0.367481  -0.078138 4.787681
1615191804.900093010 0.010475 -0.174601 -0.078604  103.931208 30.747978   0.007750 0.364237  -0.077691 4.796717
1615191804.917594435 0.012849 -0.170962 -0.096655  103.931208 30.747978   0.008083 0.360982  -0.077349 4.803448
1615191804.935055277 0.004128 -0.170970 -0.124078  103.931208 30.747978   0.007817 0.357698  -0.078128 4.810922
1615191804.952594563 0.000556 -0.175099 -0.080796  103.931208 30.747978   0.007319 0.354073  -0.078910 4.818327
1615191804.970093570 0.002777 -0.171473 -0.085995  103.931208 30.747978   0.007319 0.354073  -0.078910 4.818327
1615191804.987593027 0.012139 -0.160674 -0.087759  103.931208 30.747979   0.007268 0.350836  -0.075866 4.847851
1615191805.005092546 0.013989 -0.156038 -0.133202  103.931208 30.747979   0.007593 0.348043  -0.076650 4.855115
1615191805.022554476 0.010273 -0.139632 -0.152573  103.931208 30.747979   0.007601 0.345676  -0.077424 4.862327
1615191805.040093610 0.004371 -0.130792 -0.119822  103.931208 30.747979   0.007063 0.343519  -0.078196 4.869492
1615191805.057595225 -0.008256 -0.129975 -0.133181  103.931208 30.747979   0.006345 0.340837  -0.078981 4.876613
1615191805.075054969 -0.007640 -0.136711 -0.166572  103.931208 30.747979   0.006058 0.338064  -0.079772 4.883677
1615191805.092592319 -0.006305 -0.134697 -0.145758  103.931208 30.747979   0.005760 0.335333  -0.080564 4.890684
1615191805.110092634 -0.002540 -0.130298 -0.119029  103.931208 30.747979   0.005760 0.335333  -0.080564 4.890684
1615191805.127609025 -0.007579 -0.123238 -0.112734  103.931208 30.747979   0.005576 0.333246  -0.081467 4.896275
1615191805.145095727 -0.012963 -0.111458 -0.094589  103.931208 30.747979   0.005000 0.331760  -0.082751 4.903846
1615191805.162592848 -0.014716 -0.102697 -0.058638  103.931208 30.747979   0.004251 0.330719  -0.084043 4.911373
1615191805.180097590 -0.018460 -0.096942 -0.103254  103.931208 30.747979   0.003478 0.329918  -0.085344 4.918872
1615191805.197592745 -0.011187 -0.086078 -0.091723  103.931208 30.747979   0.003289 0.329166  -0.086651 4.926341
1615191805.215097784 -0.005285 -0.083489 -0.079630  103.931208 30.747979   0.003017 0.328225  -0.087957 4.933780
1615191805.232605927 -0.005763 -0.084131 -0.087018  103.931208 30.747979   0.002608 0.327014  -0.089265 4.941185
1615191805.250093300 -0.014763 -0.093356 -0.094709  103.931208 30.747979   0.002608 0.327014  -0.089265 4.941185
1615191805.267591381 -0.016364 -0.088317 -0.099628  103.931208 30.747979   0.001792 0.325471  -0.090582 4.948551
1615191805.285099322 -0.016069 -0.078596 -0.095755  103.931208 30.747980   0.001276 0.324561  -0.091908 4.955876
1615191805.302593906 -0.017271 -0.074928 -0.106791  103.931208 30.747980   0.000679 0.323853  -0.093241 4.963178
1615191805.320092467 -0.025076 -0.072938 -0.088346  103.931208 30.747980   0.000009 0.323207  -0.093910 4.968721
1615191805.337593719 -0.026623 -0.075677 -0.090691  103.931208 30.747980   -0.000703 0.322642  -0.093350 4.975542
1615191805.355054420 -0.024088 -0.068381 -0.109155  103.931208 30.747980   -0.000703 0.322642  -0.093350 4.975542
1615191805.372596765 -0.020205 -0.069207 -0.129903  103.931208 30.747980   -0.001318 0.321779  -0.092254 4.989117
1615191805.390090341 -0.010800 -0.063922 -0.102287  103.931208 30.747980   -0.001318 0.321779  -0.092254 4.989117
1615191805.407606407 -0.008704 -0.053742 -0.109609  103.931208 30.747980   -0.001276 0.321664  -0.087444 5.006735
1615191805.425092636 -0.017539 -0.056985 -0.105396  103.931208 30.747980   -0.001472 0.321891  -0.086883 5.013586
1615191805.442588529 -0.021718 -0.060395 -0.096492  103.931208 30.747980   -0.002172 0.321515  -0.086328 5.020415
1615191805.460092213 -0.027777 -0.065778 -0.078152  103.931208 30.747980   -0.002896 0.320939  -0.085785 5.027214
1615191805.477593755 -0.029460 -0.066203 -0.049135  103.931208 30.747980   -0.003659 0.320499  -0.085257 5.033989
1615191805.495054525 -0.030139 -0.068469 -0.057596  103.931208 30.747980   -0.003659 0.320499  -0.085257 5.033989
1615191805.512589717 -0.024033 -0.079313 -0.067724  103.931208 30.747980   -0.004180 0.319849  -0.084744 5.040734
1615191805.530095584 -0.022770 -0.080705 -0.044817  103.931208 30.747980   -0.004974 0.316989  -0.085057 5.052620
1615191805.547592860 -0.022589 -0.082762 -0.049315  103.931208 30.747980   -0.004974 0.316989  -0.085057 5.052620
1615191805.565093199 -0.025044 -0.078081 -0.052616  103.931208 30.747980   -0.005496 0.315366  -0.085757 5.059436
1615191805.582554522 -0.027759 -0.082455 -0.041044  103.931208 30.747981   -0.006189 0.313845  -0.086466 5.066222
1615191805.600095317 -0.028891 -0.088692 -0.034218  103.931208 30.747981   -0.006935 0.311945  -0.087189 5.072974
1615191805.617595151 -0.027161 -0.093406 -0.027821  103.931208 30.747981   -0.007373 0.309784  -0.087926 5.079686
1615191805.635054429 -0.017599 -0.104130 -0.034148  103.931208 30.747981   -0.007373 0.309784  -0.087926 5.079686
1615191805.652595065 -0.008283 -0.109536 -0.039297  103.931208 30.747981   -0.007452 0.307340  -0.088666 5.086347
1615191805.670093687 -0.015465 -0.120619 -0.074214  103.931208 30.747981   -0.008122 0.302120  -0.090144 5.099529
1615191805.687594308 -0.019455 -0.130792 -0.029352  103.931208 30.747981   -0.008122 0.302120  -0.090144 5.099529
1615191805.705092435 -0.015968 -0.128863 -0.026519  103.931208 30.747981   -0.008610 0.299339  -0.090899 5.106033
1615191805.722594263 -0.012407 -0.127419 -0.047066  103.931208 30.747981   -0.008642 0.296448  -0.091406 5.111679
1615191805.740053991 -0.014543 -0.136594 -0.067858  103.931208 30.747981   -0.008729 0.292938  -0.091730 5.119164
1615191805.757549789 -0.017849 -0.150425 -0.070553  103.931208 30.747981   -0.009101 0.288847  -0.092063 5.126587
1615191805.775050371 -0.017644 -0.156033 -0.007004  103.931208 30.747981   -0.009101 0.288847  -0.092063 5.126587
1615191805.792550062 -0.004172 -0.165852 -0.021641  103.931208 30.747981   -0.009080 0.284797  -0.092404 5.133943
1615191805.810049853 0.003555 -0.160005 -0.023973  103.931208 30.747981   -0.008163 0.277009  -0.093078 5.148442
1615191805.827549983 0.004890 -0.161360 -0.006802  103.931208 30.747981   -0.008163 0.277009  -0.093078 5.148442
1615191805.845049643 0.004484 -0.164464 -0.015429  103.931208 30.747981   -0.007860 0.272932  -0.093974 5.164785
1615191805.862549485 0.006157 -0.166693 -0.023464  103.931208 30.747981   -0.007587 0.268816  -0.094300 5.171831
1615191805.880050625 -0.000283 -0.175198 -0.081676  103.931208 30.747982   -0.007662 0.264505  -0.094627 5.178808
1615191805.897549995 -0.003376 -0.188509 -0.060442  103.931208 30.747982   -0.007594 0.259939  -0.094956 5.185708
1615191805.915049099 -0.003244 -0.192655 -0.019341  103.931208 30.747982   -0.007483 0.255274  -0.095126 5.190581
1615191805.932549425 0.007167 -0.191819 -0.014198  103.931208 30.747982   -0.007483 0.255274  -0.095126 5.190581
1615191805.950049949 0.022554 -0.185088 -0.019361  103.931208 30.747982   -0.006722 0.251479  -0.095136 5.196356
1615191805.967549435 0.021080 -0.184206 -0.053886  103.931208 30.747982   -0.005751 0.247903  -0.095126 5.202060
1615191805.985049871 0.020504 -0.186459 -0.070077  103.931208 30.747982   -0.005330 0.244087  -0.095105 5.207688
1615191806.002549816 0.015166 -0.187165 -0.082949  103.931208 30.747982   -0.005141 0.240231  -0.095079 5.213242
1615191806.020049551 0.017129 -0.192648 -0.125925  103.931208 30.747982   -0.004650 0.236272  -0.095048 5.218723
1615191806.037550369 0.017889 -0.185520 -0.129930  103.931208 30.747982   -0.004218 0.232426  -0.095012 5.224125
1615191806.055050714 0.015032 -0.181340 -0.158139  103.931208 30.747982   -0.003836 0.228954  -0.094971 5.229463
1615191806.072549163 0.023328 -0.182875 -0.142996  103.931208 30.747982   -0.003836 0.228954  -0.094971 5.229463
1615191806.090049551 0.031301 -0.181026 -0.146963  103.931208 30.747982   -0.002897 0.225176  -0.094919 5.234723
1615191806.107549847 0.021398 -0.182007 -0.157417  103.931208 30.747982   -0.002100 0.221588  -0.094846 5.239912
1615191806.125049755 0.015588 -0.182529 -0.122877  103.931208 30.747982   -0.002021 0.217880  -0.094682 5.243797
1615191806.142549653 0.015627 -0.188650 -0.113508  103.931208 30.747982   -0.001947 0.213849  -0.094484 5.248929
1615191806.160049659 0.018547 -0.188702 -0.140514  103.931208 30.747982   -0.001389 0.210259  -0.094278 5.253988
1615191806.177549178 0.036796 -0.173205 -0.041943  103.931208 30.747982   -0.000202 0.207075  -0.094050 5.258978
1615191806.195049563 0.035451 -0.170260 -0.061180  103.931208 30.747982   0.000265 0.203959  -0.093806 5.263909
1615191806.212549030 0.029147 -0.171354 -0.043322  103.931208 30.747982   0.000265 0.203959  -0.093806 5.263909
1615191806.230050971 0.026339 -0.170423 -0.031889  103.931208 30.747982   0.000594 0.200514  -0.093555 5.268774
1615191806.247550336 0.030089 -0.166254 -0.026280  103.931208 30.747982   0.001071 0.197253  -0.093296 5.273567
1615191806.265049472 0.035165 -0.163188 -0.071222  103.931208 30.747982   0.001738 0.194091  -0.086687 5.277889
1615191806.282549781 0.040381 -0.162041 -0.103914  103.931208 30.747982   0.002712 0.191041  -0.086408 5.282582
1615191806.300049668 0.043646 -0.159651 -0.066132  103.931208 30.747982   0.003612 0.187992  -0.086107 5.287217
1615191806.317550333 0.044252 -0.157631 -0.057802  103.931208 30.747983   0.004496 0.184986  -0.086046 5.290249
1615191806.335051200 0.042876 -0.160605 -0.098218  103.931208 30.747983   0.005198 0.181812  -0.086682 5.293018
1615191806.352549505 0.036125 -0.158896 -0.065861  103.931208 30.747983   0.005466 0.178777  -0.087310 5.295721
1615191806.370050033 0.032649 -0.152656 -0.062061  103.931208 30.747983   0.005466 0.178777  -0.087310 5.295721
1615191806.387549931 0.040953 -0.147056 -0.083361  103.931208 30.747983   0.005984 0.176060  -0.087929 5.298364
1615191806.405052148 0.043695 -0.149069 -0.076597  103.931208 30.747983   0.006971 0.173305  -0.088527 5.300950
1615191806.422550542 0.042439 -0.151268 -0.048485  103.931208 30.747983   0.007820 0.170392  -0.089101 5.303479
1615191806.440049648 0.038229 -0.157407 -0.060270  103.931208 30.747983   0.008240 0.166999  -0.089665 5.305945
1615191806.457549403 0.046529 -0.153440 -0.048901  103.931208 30.747983   0.009138 0.163969  -0.090212 5.308345
1615191806.475049208 0.047452 -0.142684 -0.024674  103.931208 30.747983   0.010155 0.161469  -0.090736 5.310683
1615191806.492550996 0.043646 -0.141364 -0.086792  103.931208 30.747983   0.010745 0.158949  -0.091246 5.312975
1615191806.510049364 0.041172 -0.141114 -0.073739  103.931208 30.747983   0.010745 0.158949  -0.091246 5.312975
1615191806.527549327 0.045292 -0.135736 -0.062600  103.931208 30.747983   0.011318 0.155910  -0.091581 5.314413
1615191806.545049444 0.045833 -0.123447 -0.047038  103.931208 30.747983   0.012207 0.152453  -0.091448 5.316639
1615191806.562551047 0.046567 -0.115405 -0.040422  103.931208 30.747983   0.012947 0.149568  -0.091295 5.318823
1615191806.580050234 0.049561 -0.114005 -0.038881  103.931208 30.747983   0.013838 0.146681  -0.091125 5.320966
1615191806.597550835 0.053820 -0.105378 -0.044671  103.931208 30.747983   0.013838 0.146681  -0.091125 5.320966
1615191806.615050128 0.046478 -0.093843 -0.023944  103.931208 30.747983   0.015454 0.141398  -0.090719 5.325131
1615191806.632550009 0.044789 -0.088728 0.013329  103.931208 30.747983   0.016021 0.139264  -0.090489 5.327164
1615191806.650049357 0.040924 -0.077592 0.038712  103.931208 30.747983   0.016021 0.139264  -0.090489 5.327164
1615191806.667551248 0.045158 -0.075789 0.026926  103.931208 30.747983   0.016567 0.137330  -0.090245 5.329173
1615191806.685051798 0.052494 -0.075124 0.083287  103.931208 30.747983   0.017620 0.135046  -0.094223 5.310345
1615191806.702549314 0.052707 -0.076642 0.025223  103.931208 30.747983   0.018641 0.132924  -0.093942 5.312324
1615191806.720049336 0.049661 -0.079270 0.044258  103.931208 30.747983   0.019475 0.130762  -0.093718 5.313789
1615191806.737548861 0.047039 -0.076039 0.099575  103.931208 30.747983   0.020136 0.129292  -0.093227 5.317734
1615191806.755052249 0.050171 -0.069490 0.099516  103.931208 30.747983   0.020136 0.129292  -0.093227 5.317734
1615191806.772549550 0.055513 -0.055872 0.083010  103.931208 30.747983   0.022359 0.127498  -0.092177 5.325549
1615191806.790048945 0.055004 -0.048119 0.038260  103.931208 30.747983   0.022359 0.127498  -0.092177 5.325549
1615191806.807549286 0.058592 -0.043711 -0.042302  103.931208 30.747983   0.023390 0.126729  -0.091618 5.329430
1615191806.825049297 0.051241 -0.053818 -0.048303  103.931208 30.747983   0.024541 0.125876  -0.091036 5.333302
1615191806.842549013 0.044801 -0.060321 -0.049641  103.931208 30.747983   0.025126 0.124373  -0.090434 5.337151
1615191806.860049081 0.031482 -0.073960 -0.039402  103.931208 30.747983   0.025315 0.122480  -0.089820 5.340965
1615191806.877551069 0.027130 -0.076045 -0.042642  103.931208 30.747983   0.025521 0.120886  -0.089205 5.344741
1615191806.895051013 0.028467 -0.070379 -0.053384  103.931208 30.747983   0.025521 0.120886  -0.089205 5.344741
1615191806.912549744 0.048342 -0.060757 -0.020206  103.931208 30.747983   0.027460 0.118190  -0.087775 5.351582
1615191806.930052229 0.047577 -0.056845 -0.030138  103.931208 30.747983   0.028160 0.116312  -0.086181 5.354582
1615191806.947549157 0.040108 -0.064317 -0.015915  103.931208 30.747983   0.028160 0.116312  -0.086181 5.354582
1615191806.965049371 0.037129 -0.068594 -0.047382  103.931208 30.747983   0.028535 0.113863  -0.084577 5.357554
1615191806.982549101 0.034853 -0.066327 -0.044753  103.931208 30.747983   0.029067 0.111652  -0.082960 5.360488
1615191807.000049471 0.031757 -0.058641 -0.066559  103.931208 30.747983   0.029500 0.109790  -0.081331 5.363400
1615191807.017549196 0.030048 -0.058434 -0.063330  103.931208 30.747983   0.029721 0.107932  -0.079693 5.366290
1615191807.035051096 0.029608 -0.055826 -0.061082  103.931208 30.747983   0.029721 0.107932  -0.079693 5.366290
1615191807.052551622 0.026788 -0.052029 -0.055656  103.931208 30.747983   0.030634 0.104608  -0.076382 5.372012
1615191807.070051524 0.023842 -0.051815 -0.059424  103.931208 30.747983   0.030640 0.102923  -0.074712 5.374840
1615191807.087549962 0.008633 -0.052122 -0.074132  103.931208 30.747983   0.030640 0.102923  -0.074712 5.374840
1615191807.105049783 0.001962 -0.059897 -0.044949  103.931208 30.747983   0.030176 0.101063  -0.063297 5.387241
1615191807.122552175 0.006183 -0.055576 -0.086960  103.931208 30.747983   0.029986 0.098968  -0.062058 5.389287
1615191807.140049572 0.012995 -0.048717 -0.087738  103.931208 30.747983   0.030451 0.097294  -0.061345 5.393067
1615191807.157549295 0.013748 -0.051307 -0.079765  103.931208 30.747983   0.030885 0.095470  -0.060621 5.396830
1615191807.175051457 0.009210 -0.056442 -0.051022  103.931208 30.747983   0.030885 0.095470  -0.060621 5.396830
1615191807.192550419 -0.001244 -0.063421 -0.007669  103.931208 30.747984   0.030756 0.093086  -0.059896 5.400566
1615191807.210049611 -0.001811 -0.062497 -0.008505  103.931208 30.747984   0.030427 0.088869  -0.058459 5.407949
1615191807.227549633 0.000354 -0.057158 -0.033528  103.931208 30.747984   0.030427 0.088869  -0.058459 5.407949
1615191807.245050227 -0.000634 -0.062449 -0.050481  103.931208 30.747984   0.030445 0.086992  -0.057742 5.411605
1615191807.262552070 -0.000634 -0.062449 -0.050481  103.931208 30.747984   0.030330 0.084691  -0.057022 5.415236
1615191807.280050184 -0.011478 -0.081009 -0.012741  103.931208 30.747984   0.029951 0.082125  -0.056307 5.418836
1615191807.297550485 -0.011500 -0.086884 -0.026460  103.931208 30.747984   0.029645 0.079525  -0.055599 5.422396
1615191807.315049144 -0.006846 -0.085705 -0.046226  103.931208 30.747984   0.029918 0.077136  -0.054791 5.425381
1615191807.332551161 -0.012419 -0.080758 -0.029356  103.931208 30.747984   0.029918 0.077136  -0.054791 5.425381
1615191807.350049932 -0.020985 -0.079687 -0.004166  103.931208 30.747984   0.030162 0.074838  -0.052691 5.428561
1615191807.367549816 -0.024455 -0.083059 -0.021080  103.931208 30.747984   0.030170 0.072408  -0.050601 5.431709
1615191807.385050997 -0.026858 -0.086598 0.027888  103.931208 30.747984   0.030318 0.069864  -0.048522 5.434832
1615191807.402550268 -0.027366 -0.092193 -0.011833  103.931208 30.747984   0.030305 0.066975  -0.046457 5.437909
1615191807.420049698 -0.034139 -0.096943 0.032286  103.931208 30.747984   0.030115 0.064082  -0.044407 5.440940
1615191807.437549091 -0.031999 -0.091740 0.000759  103.931208 30.747984   0.030139 0.061745  -0.042371 5.443935
1615191807.455049386 -0.030229 -0.088072 0.015360  103.931208 30.747984   0.030238 0.059622  -0.040346 5.446892
1615191807.472549321 -0.033546 -0.076557 0.009058  103.931208 30.747984   0.030238 0.059622  -0.040346 5.446892
1615191807.490050340 -0.049156 -0.076562 -0.038126  103.931208 30.747984   0.029865 0.057862  -0.038334 5.449827
1615191807.507550987 -0.055943 -0.079513 0.007135  103.931208 30.747984   0.029005 0.055587  -0.036346 5.452738
1615191807.525049953 -0.055708 -0.075639 -0.038940  103.931208 30.747984   0.028241 0.053455  -0.034870 5.454898
1615191807.542550014 -0.066293 -0.076141 -0.062222  103.931208 30.747984   0.027222 0.051748  -0.016221 5.461627
1615191807.560050861 -0.069585 -0.075618 -0.005940  103.931208 30.747984   0.026254 0.049952  -0.014013 5.463163
1615191807.577549401 -0.061571 -0.067194 -0.001144  103.931209 30.747984   0.025591 0.048440  -0.011833 5.464677
1615191807.595049422 -0.059101 -0.065105 -0.045060  103.931209 30.747984   0.025258 0.047048  -0.009670 5.466167
1615191807.612549357 -0.058514 -0.065672 -0.134040  103.931209 30.747984   0.025258 0.047048  -0.009670 5.466167
1615191807.630049988 -0.071042 -0.065993 -0.256445  103.931209 30.747984   0.024347 0.045439  -0.007524 5.467631
1615191807.647550617 -0.073920 -0.071733 -0.308319  103.931209 30.747984   0.023020 0.043723  -0.005414 5.469068
1615191807.665050100 -0.074418 -0.072997 -0.321451  103.931209 30.747984   0.021897 0.041919  -0.003335 5.470475
1615191807.682550489 -0.073440 -0.070546 -0.324643  103.931209 30.747984   0.020870 0.040407  -0.001287 5.471853
1615191807.700050385 -0.072337 -0.067335 -0.317562  103.931209 30.747984   0.019844 0.038927  0.000734 5.473210
1615191807.717549465 -0.078585 -0.063975 -0.243523  103.931209 30.747984   0.018632 0.037591  0.002088 5.474188
1615191807.735049159 -0.081815 -0.066965 -0.289905  103.931209 30.747984   0.017190 0.036299  0.002011 5.476597
1615191807.752549620 -0.082803 -0.069907 -0.241279  103.931209 30.747984   0.015842 0.035074  0.001902 5.478981
1615191807.770051124 -0.086208 -0.068778 -0.218744  103.931209 30.747984   0.015842 0.035074  0.001902 5.478981
1615191807.787550289 -0.090879 -0.066560 -0.209397  103.931209 30.747984   0.014355 0.033907  0.001759 5.481334
1615191807.805050116 -0.089726 -0.067189 -0.182192  103.931209 30.747984   0.012723 0.032756  0.001577 5.483663
1615191807.822550214 -0.095479 -0.068857 -0.159389  103.931209 30.747984   0.011112 0.031427  0.001358 5.485965
1615191807.840051892 -0.100244 -0.066758 -0.175102  103.931209 30.747984   0.009108 0.030204  0.001097 5.488245
1615191807.857550266 -0.097949 -0.074652 -0.143623  103.931209 30.747984   0.007421 0.028663  0.000790 5.490485
1615191807.875049755 -0.094458 -0.068831 -0.138489  103.931209 30.747984   0.006079 0.027528  0.000448 5.492695
1615191807.892549771 -0.094857 -0.065424 -0.110442  103.931209 30.747984   0.004349 0.026514  0.000072 5.494882
1615191807.910048974 -0.100401 -0.068781 -0.073432  103.931209 30.747984   0.004349 0.026514  0.000072 5.494882
1615191807.927549467 -0.105484 -0.070385 -0.121469  103.931209 30.747984   0.002252 0.025083  -0.000642 5.496763
1615191807.945050401 -0.112615 -0.071458 -0.068239  103.931209 30.747984   0.000008 0.023560  -0.001890 5.499572
1615191807.962549593 -0.114052 -0.070349 -0.077742  103.931208 30.747985   -0.002570 0.022118  -0.025484 5.513650
1615191807.980050447 -0.114878 -0.081667 -0.090784  103.931208 30.747985   -0.004984 0.019962  -0.026848 5.516420
1615191807.997550830 -0.115695 -0.104546 -0.064999  103.931208 30.747985   -0.007334 0.017524  -0.028260 5.519139
1615191808.015049154 -0.122720 -0.121562 -0.058478  103.931208 30.747985   -0.009955 0.014600  -0.029721 5.521803
1615191808.032549541 -0.126410 -0.125163 -0.030764  103.931208 30.747985   -0.012751 0.011943  -0.031234 5.524413
1615191808.050048658 -0.126065 -0.110628 -0.027310  103.931208 30.747985   -0.012751 0.011943  -0.031234 5.524413
1615191808.067550180 -0.114894 -0.092806 0.000839  103.931208 30.747985   -0.015202 0.010245  -0.032796 5.526983
1615191808.085050219 -0.110584 -0.084259 0.022596  103.931208 30.747985   -0.017170 0.008948  -0.034402 5.529519
1615191808.102550323 -0.114045 -0.088336 -0.039379  103.931208 30.747985   -0.019413 0.007395  -0.036048 5.532031
1615191808.120049583 -0.122882 -0.100613 -0.017447  103.931208 30.747985   -0.022208 0.004782  -0.037538 5.533870
1615191808.137549700 -0.123571 -0.108691 0.023872  103.931208 30.747985   -0.024849 0.001083  -0.039118 5.535535
1615191808.155050167 -0.129277 -0.119860 0.030999  103.931208 30.747985   -0.027564 -0.002409  -0.040749 5.537148
1615191808.172551375 -0.125632 -0.120917 0.014650  103.931208 30.747985   -0.029894 -0.005668  -0.042433 5.538707
1615191808.190049574 -0.108795 -0.112202 -0.006468  103.931208 30.747985   -0.029894 -0.005668  -0.042433 5.538707
1615191808.207550223 -0.101064 -0.102825 -0.022656  103.931208 30.747985   -0.031542 -0.008360  -0.044152 5.540225
1615191808.225049906 -0.104518 -0.109531 -0.055069  103.931208 30.747985   -0.033479 -0.011004  -0.045904 5.541704
1615191808.242551467 -0.101933 -0.112272 -0.033899  103.931208 30.747985   -0.035710 -0.014227  -0.047697 5.543141
1615191808.260050537 -0.096606 -0.120422 -0.066286  103.931208 30.747985   -0.037778 -0.017479  -0.049531 5.544529
1615191808.277550603 -0.093590 -0.125750 -0.052404  103.931208 30.747985   -0.039359 -0.020959  -0.051400 5.545863
1615191808.295050458 -0.082232 -0.119165 -0.040987  103.931208 30.747985   -0.039359 -0.020959  -0.051400 5.545863
1615191808.312550790 -0.074194 -0.119652 -0.001234  103.931208 30.747985   -0.041978 -0.026777  -0.055244 5.547792
1615191808.330049021 -0.069404 -0.115027 -0.017206  103.931208 30.747985   -0.041978 -0.026777  -0.055244 5.547792
1615191808.347549922 -0.075703 -0.117682 -0.033583  103.931208 30.747985   -0.043734 -0.029540  -0.058626 5.547882
1615191808.365052618 -0.079673 -0.129288 -0.052420  103.931208 30.747985   -0.045725 -0.032515  -0.062041 5.547927
1615191808.382536451 -0.079951 -0.131787 -0.039787  103.931208 30.747985   -0.047749 -0.036053  -0.086789 5.537182
1615191808.400049721 -0.064170 -0.139326 -0.081010  103.931208 30.747985   -0.049193 -0.039596  -0.090275 5.537090
1615191808.417591618 -0.056047 -0.141588 -0.025375  103.931208 30.747985   -0.049981 -0.042984  -0.093777 5.536940
1615191808.435054697 -0.047409 -0.137003 -0.030924  103.931208 30.747985   -0.049981 -0.042984  -0.093777 5.536940
1615191808.452592679 -0.041275 -0.133047 0.003984  103.931208 30.747985   -0.051853 -0.049114  -0.100812 5.536475
1615191808.470092509 -0.028254 -0.123533 -0.029690  103.931208 30.747985   -0.052078 -0.051803  -0.104345 5.536166
1615191808.487597672 -0.014522 -0.124019 -0.021984  103.931208 30.747985   -0.052078 -0.051803  -0.104345 5.536166
1615191808.505091385 -0.007129 -0.119818 -0.017536  103.931207 30.747985   -0.052249 -0.054787  -0.107877 5.535809
1615191808.522592660 -0.001467 -0.120474 -0.063816  103.931207 30.747985   -0.052292 -0.057574  -0.110595 5.535323
1615191808.540094933 0.009160 -0.124903 -0.033878  103.931207 30.747985   -0.051938 -0.060848  -0.113072 5.534864
1615191808.557592470 0.011892 -0.122385 0.004341  103.931207 30.747985   -0.051601 -0.063768  -0.115538 5.534354
1615191808.575093780 0.015014 -0.117670 -0.013380  103.931207 30.747985   -0.051601 -0.063768  -0.115538 5.534354
1615191808.592594363 0.015755 -0.116079 -0.001022  103.931207 30.747985   -0.050980 -0.069392  -0.120450 5.533197
1615191808.610096600 0.015273 -0.113024 0.010740  103.931207 30.747985   -0.050789 -0.072053  -0.122900 5.532548
1615191808.627592892 0.019330 -0.105504 -0.011308  103.931207 30.747985   -0.050789 -0.072053  -0.122900 5.532548
1615191808.645096345 0.024125 -0.098735 -0.021669  103.931207 30.747985   -0.050223 -0.074292  -0.125340 5.531860
1615191808.662593522 0.023386 -0.100263 0.021843  103.931207 30.747985   -0.049747 -0.076707  -0.127766 5.531142
1615191808.680052263 0.030421 -0.096830 0.018824  103.931207 30.747985   -0.049069 -0.079130  -0.130183 5.530384
1615191808.697549400 0.047480 -0.083244 0.009618  103.931207 30.747985   -0.047933 -0.081013  -0.132583 5.529591
1615191808.715049299 0.053515 -0.079508 -0.002134  103.931207 30.747985   -0.046565 -0.082663  -0.134168 5.528697
1615191808.732548652 0.048302 -0.064827 0.016281  103.931207 30.747985   -0.046565 -0.082663  -0.134168 5.528697
1615191808.750048719 0.041775 -0.065094 0.028047  103.931207 30.747985   -0.045870 -0.084045  -0.135535 5.527235
1615191808.767548055 0.049942 -0.060709 0.014815  103.931207 30.747985   -0.045225 -0.085885  -0.136888 5.525745
1615191808.785047933 0.060237 -0.050460 -0.017235  103.931207 30.747985   -0.043938 -0.087330  -0.138218 5.524235
1615191808.802547717 0.060237 -0.050460 -0.017235  103.931207 30.747984   -0.042447 -0.088468  -0.134159 5.508923
1615191808.820048071 0.068648 -0.032641 -0.007849  103.931207 30.747984   -0.040846 -0.089239  -0.135391 5.507399
1615191808.837594643 0.064946 -0.013846 -0.016142  103.931207 30.747984   -0.039474 -0.089439  -0.136597 5.505871
1615191808.855096253 0.067744 -0.004742 -0.034430  103.931207 30.747984   -0.037897 -0.089294  -0.137776 5.504351
1615191808.872592542 0.074075 0.012090 -0.002129  103.931207 30.747984   -0.037897 -0.089294  -0.137776 5.504351
1615191808.890094566 0.072150 0.021795 -0.000160  103.931207 30.747984   -0.036250 -0.088885  -0.138924 5.502840
1615191808.907594857 0.073901 0.026524 0.011835  103.931207 30.747984   -0.034808 -0.088544  -0.140046 5.501346
1615191808.925093601 0.077191 0.031645 0.049035  103.931207 30.747984   -0.033104 -0.088097  -0.140867 5.500238
1615191808.942595623 0.081979 0.042758 0.031258  103.931207 30.747984   -0.030701 -0.086978  -0.141223 5.497971
1615191808.960093343 0.086624 0.046936 -0.001843  103.931207 30.747984   -0.028083 -0.085767  -0.141544 5.495728
1615191808.977595865 0.081467 0.047358 0.028172  103.931207 30.747984   -0.025942 -0.084884  -0.141828 5.493505
1615191808.995055199 0.083459 0.048457 -0.030369  103.931207 30.747984   -0.023662 -0.083843  -0.142083 5.491302
1615191809.012593195 0.089635 0.050362 -0.002237  103.931207 30.747984   -0.023662 -0.083843  -0.142083 5.491302
1615191809.030093087 0.087055 0.062747 0.008112  103.931207 30.747984   -0.021200 -0.082723  -0.142299 5.489121
1615191809.047594889 0.082651 0.078375 0.006927  103.931207 30.747984   -0.019050 -0.080932  -0.142480 5.486969
1615191809.065093149 0.082146 0.078924 0.032274  103.931207 30.747984   -0.016898 -0.078937  -0.142633 5.484851
1615191809.082593379 0.093870 0.076001 0.039626  103.931207 30.747984   -0.014372 -0.077546  -0.142750 5.482772
1615191809.100095561 0.097348 0.075366 0.018579  103.931207 30.747984   -0.011724 -0.076016  -0.142823 5.480718
1615191809.117598004 0.091960 0.072123 0.082582  103.931207 30.747984   -0.009778 -0.074924  -0.142708 5.478776
1615191809.135095123 0.090474 0.070568 0.040903  103.931207 30.747984   -0.008092 -0.073971  -0.143663 5.477100
1615191809.152594616 0.090080 0.064978 0.046385  103.931207 30.747984   -0.006381 -0.073226  -0.144579 5.475447
1615191809.170094348 0.090463 0.059996 0.014618  103.931207 30.747984   -0.006381 -0.073226  -0.144579 5.475447
1615191809.187595722 0.098282 0.059991 0.000441  103.931207 30.747984   -0.004575 -0.072613  -0.145460 5.473814
1615191809.205097097 0.100506 0.058389 0.045310  103.931207 30.747984   -0.002377 -0.071727  -0.146302 5.472202
1615191809.222555419 0.098257 0.058960 0.052366  103.931207 30.747984   -0.000361 -0.070917  -0.147101 5.470614
1615191809.240096669 0.092373 0.060014 0.016203  103.931207 30.747984   0.001041 -0.070074  -0.139530 5.453687
1615191809.257595184 0.088686 0.049582 0.020443  103.931207 30.747984   0.002578 -0.069646  -0.140254 5.452163
1615191809.275095352 0.087691 0.051901 0.009081  103.931207 30.747984   0.004315 -0.068770  -0.140943 5.450656
1615191809.292593588 0.083931 0.055828 -0.019105  103.931207 30.747984   0.005727 -0.067718  -0.141599 5.449173
1615191809.310094508 0.078707 0.053759 -0.048590  103.931207 30.747984   0.005727 -0.067718  -0.141599 5.449173
1615191809.327555389 0.071940 0.059225 -0.057816  103.931207 30.747984   0.007136 -0.066825  -0.141757 5.448362
1615191809.345091172 0.072598 0.064967 0.004379  103.931207 30.747984   0.008580 -0.065587  -0.140975 5.448530
1615191809.362595239 0.074531 0.064931 0.010035  103.931207 30.747984   0.010135 -0.064424  -0.140166 5.448725
1615191809.380093668 0.074851 0.061817 -0.013951  103.931207 30.747984   0.011797 -0.063427  -0.139327 5.448948
1615191809.397594108 0.074395 0.064521 0.014917  103.931207 30.747984   0.013385 -0.062346  -0.138454 5.449195
1615191809.415092506 0.062524 0.064491 0.025822  103.931207 30.747984   0.014593 -0.061143  -0.137555 5.449464
1615191809.432593037 0.056360 0.065616 0.061722  103.931207 30.747984   0.015274 -0.059864  -0.136641 5.449760
1615191809.450095777 0.043305 0.065310 0.040325  103.931207 30.747984   0.015274 -0.059864  -0.136641 5.449760
1615191809.467595242 0.042776 0.071016 0.024509  103.931207 30.747984   0.015920 -0.058655  -0.135717 5.450081
1615191809.485093985 0.045840 0.076233 0.020756  103.931207 30.747984   0.016877 -0.057228  -0.134778 5.450432
1615191809.502597302 0.041698 0.076246 -0.034426  103.931207 30.747984   0.017912 -0.055664  -0.133821 5.450817
1615191809.520093739 0.032274 0.075376 -0.034841  103.931207 30.747984   0.018480 -0.054661  -0.132837 5.451171
1615191809.537595713 0.029952 0.074150 -0.022211  103.931207 30.747984   0.018900 -0.054090  -0.131646 5.451048
1615191809.555093721 0.018042 0.085057 -0.023773  103.931207 30.747984   0.019183 -0.053159  -0.130445 5.450957
1615191809.572595086 0.012350 0.083559 -0.042214  103.931207 30.747984   0.019093 -0.052361  -0.129246 5.450904
1615191809.590093924 0.014036 0.081508 -0.016301  103.931207 30.747984   0.019093 -0.052361  -0.129246 5.450904
1615191809.607596650 0.021343 0.084534 -0.015764  103.931207 30.747984   0.019592 -0.051508  -0.128044 5.450883
1615191809.625093037 0.015215 0.085356 0.064037  103.931207 30.747984   0.020218 -0.050479  -0.126831 5.450896
1615191809.642595153 0.008548 0.081528 0.054031  103.931207 30.747984   0.020154 -0.049631  -0.125612 5.450941
1615191809.660092716 0.005678 0.089904 0.031181  103.931208 30.747984   0.020086 -0.048522  -0.107293 5.460241
1615191809.677593056 0.010003 0.097933 0.088472  103.931208 30.747984   0.020451 -0.046875  -0.106055 5.460350
1615191809.695056087 0.006384 0.115836 0.042883  103.931208 30.747984   0.020588 -0.044976  -0.104814 5.460509
1615191809.712597715 0.002543 0.115580 0.090470  103.931208 30.747984   0.020652 -0.043080  -0.103565 5.460289
1615191809.730094197 -0.001348 0.120555 0.090822  103.931208 30.747984   0.020652 -0.043080  -0.103565 5.460289
1615191809.747592814 0.065037 0.109100 0.266350  103.931208 30.747984   0.021027 -0.040698  -0.101728 5.458942
1615191809.765092848 0.559751 0.107955 0.855833  103.931208 30.747984   0.028662 -0.039082  -0.099863 5.457635
1615191809.782593550 0.837355 0.107284 1.087831  103.931208 30.747984   0.059175 -0.037319  -0.097611 5.456376
1615191809.800108642 1.148420 0.052220 1.217402  103.931208 30.747984   0.094332 -0.037213  -0.094671 5.455148
1615191809.817591076 1.159039 0.039357 1.380854  103.931208 30.747984   0.118854 -0.037884  -0.091130 5.453904
1615191809.835096121 0.946801 0.026148 1.543133  103.931208 30.747984   0.134477 -0.037713  -0.087206 5.452656
1615191809.852593250 0.891772 0.034239 1.355816  103.931208 30.747984   0.149086 -0.036476  -0.083002 5.451422
1615191809.870093790 0.854688 0.052397 0.738517  103.931208 30.747984   0.149086 -0.036476  -0.083002 5.451422
1615191809.887596220 0.884451 0.071125 0.241096  103.931208 30.747984   0.165869 -0.035257  -0.078490 5.450223
1615191809.905092753 0.956083 0.081070 -0.202305  103.931208 30.747984   0.185302 -0.033354  -0.073624 5.449055
1615191809.922595231 0.993265 0.077777 -0.486605  103.931208 30.747984   0.207465 -0.031508  -0.069754 5.448042
1615191809.940090663 1.068194 0.068007 -0.793903  103.931208 30.747984   0.231160 -0.030261  -0.065145 5.447254
1615191809.957594935 1.096203 0.057925 -0.898905  103.931208 30.747984   0.255411 -0.029608  -0.060061 5.446490
1615191809.975094509 1.143533 0.042446 -1.093893  103.931208 30.747984   0.255411 -0.029608  -0.060061 5.446490
1615191809.992594053 1.177467 0.025435 -1.203186  103.931208 30.747984   0.304977 -0.029281  -0.048429 5.444977
1615191810.010108474 1.197230 0.015837 -1.179228  103.931208 30.747984   0.329605 -0.029192  -0.041877 5.444220
1615191810.027595935 1.203065 -0.003719 -1.174067  103.931208 30.747984   0.329605 -0.029192  -0.041877 5.444220
1615191810.045054614 1.203990 -0.007680 -1.090872  103.931208 30.747984   0.354130 -0.029838  -0.034843 5.443453
1615191810.062595065 1.199864 -0.006140 -1.023402  103.931208 30.747984   0.378437 -0.029932  -0.027322 5.442685
1615191810.080093581 1.179396 -0.007701 -0.879831  103.931209 30.747984   0.402087 -0.030081  -0.009819 5.425904
1615191810.097593227 1.169357 -0.005673 -0.721575  103.931209 30.747984   0.425695 -0.029953  -0.001124 5.425114
1615191810.115094843 1.160555 -0.004898 -0.599073  103.931209 30.747984   0.449979 -0.030029  0.005697 5.424521
1615191810.132597802 1.158338 -0.003616 -0.475614  103.931209 30.747984   0.449979 -0.030029  0.005697 5.424521
1615191810.150092735 1.148418 -0.008893 -0.375671  103.931209 30.747984   0.477061 -0.029859  0.018698 5.424863
1615191810.167594025 1.131937 -0.017479 -0.257448  103.931209 30.747984   0.503505 -0.030094  0.032155 5.425199
1615191810.185093287 1.112621 -0.023171 -0.178699  103.931209 30.747984   0.529399 -0.030516  0.046009 5.425531
1615191810.202595450 1.099296 -0.023534 -0.116550  103.931209 30.747984   0.554734 -0.031032  0.060188 5.425850
1615191810.220093167 1.047470 -0.036098 -0.081644  103.931209 30.747984   0.578370 -0.031925  0.074776 5.426168
1615191810.237595191 0.994325 -0.039225 -0.010563  103.931210 30.747984   0.600517 -0.032745  0.089807 5.426464
1615191810.255055127 0.972234 -0.041115 0.004442  103.931210 30.747984   0.621739 -0.033441  0.105241 5.426739
1615191810.272597584 0.939703 -0.035937 0.034407  103.931210 30.747984   0.621739 -0.033441  0.105241 5.426739
1615191810.290105507 0.908672 -0.032429 0.033678  103.931210 30.747984   0.642700 -0.033788  0.121031 5.426990
1615191810.307596528 0.864572 -0.036275 0.037027  103.931210 30.747984   0.662727 -0.034342  0.137161 5.427238
1615191810.325092392 0.837527 -0.040549 0.108883  103.931210 30.747984   0.680070 -0.035397  0.150484 5.427121
1615191810.342592210 0.789759 -0.045272 0.130983  103.931210 30.747984   0.694079 -0.037221  0.166830 5.425272
1615191810.360092355 0.732723 -0.038759 0.090420  103.931211 30.747984   0.706851 -0.038370  0.183450 5.423410
1615191810.377594191 0.687262 -0.039831 0.097044  103.931211 30.747984   0.718674 -0.039924  0.200321 5.421536
1615191810.395055154 0.671872 -0.032444 0.087986  103.931211 30.747984   0.730497 -0.040780  0.217437 5.419649
1615191810.412555050 0.645480 -0.023367 0.053662  103.931211 30.747984   0.730497 -0.040780  0.217437 5.419649
1615191810.430127716 0.620557 -0.028175 0.056885  103.931211 30.747984   0.742018 -0.041582  0.234797 5.417761
1615191810.447593168 0.590649 -0.035396 0.088163  103.931211 30.747984   0.753063 -0.042910  0.252393 5.415866
1615191810.465122407 0.576681 -0.035603 0.079313  103.931211 30.747984   0.763426 -0.044311  0.270213 5.413956
1615191810.482551580 0.534915 -0.035157 0.105350  103.931212 30.747984   0.772954 -0.045532  0.288244 5.412025
1615191810.500055976 0.508633 -0.033478 0.101953  103.931212 30.747984   0.780737 -0.046578  0.333638 5.399411
1615191810.517549609 0.445576 -0.031038 0.084305  103.931212 30.747983   0.787630 -0.048206  0.347250 5.397796
1615191810.535049220 0.437041 -0.032410 0.057817  103.931212 30.747983   0.796187 -0.050388  0.366902 5.396908
1615191810.552548667 0.418527 -0.027005 0.028343  103.931212 30.747983   0.796187 -0.050388  0.366902 5.396908
1615191810.570050869 0.391974 -0.013913 0.053556  103.931213 30.747983   0.804411 -0.052336  0.386712 5.396017
1615191810.587556406 0.360026 -0.013447 0.073014  103.931213 30.747983   0.811741 -0.053596  0.406671 5.395122
1615191810.605049439 0.345929 -0.010225 0.046385  103.931213 30.747983   0.818429 -0.055274  0.426760 5.394227
1615191810.622548798 0.314446 -0.012348 0.020367  103.931213 30.747983   0.824431 -0.056892  0.446970 5.393326
1615191810.640048630 0.294779 -0.014690 0.041866  103.931214 30.747983   0.829585 -0.058716  0.467288 5.392424
1615191810.657548706 0.249516 -0.017550 0.045796  103.931214 30.747983   0.834242 -0.060462  0.487699 5.391514
1615191810.675048831 0.237909 -0.012642 0.059420  103.931214 30.747983   0.838597 -0.061711  0.508194 5.390590
1615191810.692549507 0.216130 -0.005178 0.087730  103.931214 30.747983   0.838597 -0.061711  0.508194 5.390590
1615191810.710048851 0.201082 0.000534 0.088327  103.931214 30.747983   0.842602 -0.062803  0.528765 5.389670
1615191810.727549304 0.185832 0.004084 0.083328  103.931214 30.747983   0.847204 -0.064154  0.545551 5.388662
1615191810.745049589 0.174931 0.001297 0.050209  103.931215 30.747983   0.852512 -0.065878  0.567751 5.386170
1615191810.762549483 0.147478 0.006076 0.043467  103.931215 30.747983   0.856988 -0.067670  0.590009 5.383678
1615191810.780048556 0.132482 0.013272 0.003808  103.931215 30.747983   0.860550 -0.068880  0.612315 5.381191
1615191810.797549840 0.098425 0.015816 -0.022915  103.931215 30.747983   0.863809 -0.070307  0.634649 5.378710
1615191810.815048668 0.096442 0.022525 -0.031588  103.931215 30.747983   0.867184 -0.071182  0.657016 5.376243
1615191810.832548798 0.076644 0.029794 -0.051367  103.931216 30.747983   0.869826 -0.071725  0.679410 5.373786
1615191810.850048454 0.046568 0.029817 -0.047367  103.931216 30.747983   0.869826 -0.071725  0.679410 5.373786
1615191810.867548960 0.034692 0.027349 0.015585  103.931216 30.747983   0.871480 -0.072769  0.701814 5.371353
1615191810.885049566 0.037203 0.034535 -0.052614  103.931216 30.747983   0.873645 -0.073531  0.724224 5.368925
1615191810.902549118 0.027006 0.039299 -0.032242  103.931216 30.747983   0.875753 -0.074005  0.746654 5.366513
1615191810.920048638 0.009672 0.039309 -0.035591  103.931217 30.747983   0.876361 -0.074911  0.763440 5.364380
1615191810.937548891 0.000463 0.042799 -0.006935  103.931217 30.747983   0.875166 -0.076403  0.814990 5.340438
1615191810.955048656 -0.014059 0.055042 -0.071554  103.931217 30.747983   0.874098 -0.077460  0.834704 5.337544
1615191810.972548560 -0.016127 0.065933 -0.066581  103.931218 30.747983   0.872926 -0.078053  0.854408 5.334675
1615191810.990049191 -0.013425 0.075635 -0.087673  103.931218 30.747983   0.872926 -0.078053  0.854408 5.334675
1615191811.007555042 -0.004561 0.086872 -0.075684  103.931218 30.747983   0.872271 -0.078419  0.874110 5.331837
1615191811.025048533 -0.001514 0.095244 -0.122581  103.931218 30.747983   0.871933 -0.078358  0.893816 5.329045
1615191811.042548807 -0.013973 0.113226 -0.099359  103.931218 30.747983   0.870948 -0.077928  0.913528 5.326300
1615191811.060048486 -0.032837 0.107882 -0.120903  103.931218 30.747983   0.869287 -0.077604  0.933227 5.323611
1615191811.077548935 -0.036394 0.105764 -0.149796  103.931219 30.747983   0.867781 -0.077537  0.952905 5.320962
1615191811.095049175 -0.025549 0.110974 -0.151190  103.931219 30.747983   0.866874 -0.077184  0.972571 5.318351
1615191811.112548666 -0.018188 0.116364 -0.101042  103.931219 30.747983   0.866194 -0.076233  0.986802 5.315973
1615191811.130048319 -0.017425 0.125757 -0.093956  103.931219 30.747983   0.866194 -0.076233  0.986802 5.315973
1615191811.147548952 -0.017716 0.133820 -0.101219  103.931219 30.747983   0.865030 -0.075097  1.004326 5.312540
1615191811.165048844 -0.021107 0.138299 -0.100503  103.931219 30.747983   0.863862 -0.073823  1.021845 5.309163
1615191811.182548703 -0.022040 0.137135 -0.072104  103.931219 30.747983   0.862496 -0.072461  1.039360 5.305843
1615191811.200049335 -0.022379 0.136578 -0.067488  103.931220 30.747983   0.861194 -0.071224  1.056868 5.302583
1615191811.217554754 -0.022621 0.139090 -0.055227  103.931220 30.747983   0.860097 -0.069688  1.074367 5.299371
1615191811.235054826 -0.012031 0.152383 -0.036589  103.931220 30.747983   0.859328 -0.067724  1.091861 5.296224
1615191811.252549186 -0.006673 0.158985 -0.010509  103.931220 30.747983   0.858847 -0.065575  1.109358 5.293142
1615191811.270048797 -0.000243 0.156066 -0.006502  103.931220 30.747983   0.858847 -0.065575  1.109358 5.293142
1615191811.287549893 0.006171 0.148774 -0.017088  103.931220 30.747983   0.858315 -0.063897  1.126863 5.290129
1615191811.305048631 0.012979 0.145955 -0.011374  103.931221 30.747982   0.858050 -0.062328  1.144369 5.287167
1615191811.322548571 0.010875 0.151926 0.003185  103.931221 30.747982   0.857940 -0.060381  1.157075 5.285228
1615191811.340059087 0.008520 0.152005 -0.018988  103.931221 30.747982   0.857501 -0.057922  1.174059 5.284550
1615191811.357548420 0.013687 0.152232 -0.043923  103.931221 30.747982   0.857852 -0.055424  1.157548 5.279941
1615191811.375048757 0.024126 0.150188 -0.011106  103.931221 30.747982   0.858506 -0.052990  1.174611 5.279458
1615191811.392549147 0.025621 0.147869 -0.029066  103.931221 30.747982   0.858766 -0.050703  1.191685 5.279030
1615191811.410048452 0.019378 0.148171 -0.012991  103.931221 30.747982   0.858766 -0.050703  1.191685 5.279030
1615191811.427548805 0.015266 0.141885 -0.016317  103.931221 30.747982   0.858696 -0.048294  1.208763 5.278657
1615191811.445048536 0.006881 0.132839 0.014526  103.931221 30.747982   0.858766 -0.046266  1.225842 5.278340
1615191811.462549195 0.004056 0.134367 -0.024376  103.931222 30.747982   0.858440 -0.044190  1.242927 5.278070
1615191811.480048685 0.009449 0.134574 -0.025879  103.931222 30.747982   0.858277 -0.041925  1.260012 5.277854
1615191811.497548693 0.016144 0.131774 -0.028666  103.931222 30.747982   0.859084 -0.040004  1.277105 5.277689
1615191811.515048751 0.027217 0.123024 -0.019117  103.931222 30.747982   0.859515 -0.037854  1.289418 5.277905
1615191811.532549615 0.028999 0.114703 -0.014578  103.931222 30.747982   0.859515 -0.037854  1.289418 5.277905
1615191811.550048702 0.030925 0.112938 -0.039413  103.931222 30.747982   0.859144 -0.033008  1.321433 5.279029
1615191811.567554301 0.033478 0.110322 -0.094038  103.931222 30.747982   0.859144 -0.033008  1.321433 5.279029
1615191811.585059529 0.024359 0.121541 -0.013672  103.931223 30.747982   0.859025 -0.030250  1.337462 5.279657
1615191811.602550082 0.019932 0.116481 -0.090684  103.931223 30.747982   0.858440 -0.027383  1.353500 5.280334
1615191811.620049676 0.033045 0.110885 -0.118187  103.931223 30.747982   0.858633 -0.024966  1.369544 5.281058
1615191811.637549475 0.042165 0.113020 -0.103406  103.931223 30.747982   0.859297 -0.022636  1.385612 5.281825
1615191811.655049336 0.050918 0.103517 -0.113975  103.931223 30.747982   0.859889 -0.020691  1.401704 5.282625
1615191811.672556755 0.053501 0.099934 -0.086479  103.931223 30.747982   0.859889 -0.020691  1.401704 5.282625
1615191811.690049660 0.063952 0.094159 -0.089851  103.931224 30.747982   0.861484 -0.016624  1.433963 5.284341
1615191811.707550065 0.066959 0.087527 -0.012779  103.931224 30.747982   0.861484 -0.016624  1.433963 5.284341
1615191811.725050229 0.069398 0.077965 0.018398  103.931224 30.747982   0.862141 -0.015304  1.445766 5.285128
1615191811.742550429 0.069346 0.076337 -0.043232  103.931224 30.747982   0.862356 -0.014345  1.461858 5.285703
1615191811.760049934 0.075408 0.069520 0.004569  103.931224 30.747982   0.862667 -0.013555  1.477985 5.286302
1615191811.777549674 0.070988 0.068444 -0.001482  103.931224 30.747983   0.862688 -0.012555  1.459602 5.299111
1615191811.795049377 0.066965 0.062461 -0.011805  103.931224 30.747983   0.862522 -0.012184  1.475660 5.299710
1615191811.812550717 0.077778 0.059961 -0.062751  103.931224 30.747983   0.862522 -0.012184  1.475660 5.299710
1615191811.830049587 0.093504 0.057762 -0.095089  103.931224 30.747983   0.864409 -0.010692  1.507886 5.300968
1615191811.847549864 0.095345 0.063602 -0.013590  103.931224 30.747983   0.864409 -0.010692  1.507886 5.300968
1615191811.865050347 0.092203 0.047956 -0.023006  103.931225 30.747983   0.864963 -0.010404  1.524061 5.301629
1615191811.882550101 0.089550 0.036344 -0.057943  103.931225 30.747983   0.865392 -0.010485  1.540273 5.302300
1615191811.900050405 0.084412 0.032265 -0.066023  103.931225 30.747983   0.865778 -0.010447  1.556516 5.302979
1615191811.917549467 0.090398 0.030766 -0.018724  103.931225 30.747983   0.867096 -0.010029  1.568880 5.303952
1615191811.935049114 0.093470 0.032550 -0.046818  103.931225 30.747983   0.869583 -0.009141  1.586541 5.306184
1615191811.952549111 0.101406 0.021410 -0.057178  103.931225 30.747983   0.869583 -0.009141  1.586541 5.306184
1615191811.970050580 0.104524 0.015833 -0.034797  103.931225 30.747983   0.872229 -0.008818  1.604248 5.308419
1615191811.987549992 0.105548 0.006824 -0.033791  103.931226 30.747983   0.874825 -0.008406  1.621998 5.310658
1615191812.005050639 0.107161 0.001321 -0.010580  103.931226 30.747983   0.877358 -0.008270  1.639792 5.312893
1615191812.022550370 0.100822 -0.003712 -0.011719  103.931226 30.747983   0.879772 -0.008267  1.657633 5.315126
1615191812.040049740 0.084576 -0.008341 -0.051626  103.931226 30.747983   0.881433 -0.008069  1.675503 5.317354
1615191812.057555331 0.079872 -0.019645 0.003706  103.931226 30.747983   0.883092 -0.008559  1.693395 5.319575
1615191812.075049423 0.087257 -0.024401 -0.033022  103.931227 30.747983   0.885375 -0.009026  1.711322 5.321783
1615191812.092549351 0.087698 -0.027479 -0.045137  103.931227 30.747983   0.885375 -0.009026  1.711322 5.321783
1615191812.110049453 0.073195 -0.034365 -0.064286  103.931227 30.747983   0.887350 -0.009285  1.729286 5.323974
1615191812.127550249 0.062884 -0.048182 0.025121  103.931227 30.747983   0.888459 -0.010656  1.743027 5.325320
1615191812.145050171 0.065507 -0.050767 -0.002581  103.931227 30.747983   0.889439 -0.012904  1.761467 5.325137
1615191812.162549882 0.067331 -0.054613 0.016642  103.931227 30.747983   0.890801 -0.015119  1.779933 5.324925
1615191812.180050192 0.065094 -0.052350 0.023385  103.931227 30.747983   0.891866 -0.017128  1.798426 5.324690
1615191812.197549852 0.045473 -0.047838 0.040873  103.931228 30.747983   0.892286 -0.018848  1.825733 5.328667
1615191812.215049390 0.050402 -0.043075 -0.029686  103.931228 30.747983   0.893495 -0.020423  1.844323 5.328333
1615191812.232548850 0.064897 -0.034220 -0.026328  103.931228 30.747983   0.893495 -0.020423  1.844323 5.328333
1615191812.250050170 0.068411 -0.037155 -0.010568  103.931228 30.747983   0.895339 -0.021868  1.862938 5.327990
1615191812.267550726 0.067419 -0.034997 -0.045338  103.931228 30.747983   0.896843 -0.023589  1.881586 5.327630
1615191812.285047704 0.068350 -0.028618 0.015617  103.931228 30.747983   0.898205 -0.024998  1.900264 5.327263
1615191812.302555232 0.062154 -0.019548 -0.007948  103.931229 30.747983   0.899262 -0.026073  1.918969 5.326887
1615191812.320094435 0.059916 -0.017471 -0.010738  103.931229 30.747983   0.900608 -0.026448  1.933418 5.326957
1615191812.337602489 0.064494 -0.007380 0.039756  103.931229 30.747983   0.900608 -0.026448  1.933418 5.326957
1615191812.355096963 0.080970 -0.002415 -0.041086  103.931229 30.747983   0.904951 -0.025190  1.972584 5.330510
1615191812.372594142 0.083632 0.007974 -0.003912  103.931229 30.747983   0.904951 -0.025190  1.972584 5.330510
1615191812.390092608 0.067975 0.005211 -0.003245  103.931229 30.747983   0.907061 -0.024157  1.992222 5.332295
1615191812.407556421 0.061301 -0.014279 0.046667  103.931230 30.747983   0.908247 -0.024040  2.011883 5.334086
1615191812.425055491 0.065211 -0.018759 -0.013231  103.931230 30.747983   0.909724 -0.024457  2.031561 5.335866
1615191812.442594551 0.072192 -0.026077 0.016397  103.931230 30.747983   0.911741 -0.024782  2.051272 5.337631
1615191812.460093798 0.077882 -0.022012 0.052849  103.931230 30.747983   0.913953 -0.024830  2.071019 5.339378
1615191812.477588940 0.082169 -0.012832 0.044750  103.931230 30.747983   0.915960 -0.024359  2.090804 5.341131
1615191812.495094229 0.078249 -0.006272 0.100151  103.931231 30.747983   0.917705 -0.023913  2.110616 5.342885
1615191812.512599264 0.075744 -0.012262 0.080063  103.931231 30.747983   0.919299 -0.024545  2.125784 5.344051
1615191812.530092648 0.062242 -0.022382 0.074324  103.931231 30.747983   0.919299 -0.024545  2.125784 5.344051
1615191812.547597667 0.057102 -0.021428 0.055565  103.931231 30.747983   0.920440 -0.025667  2.145585 5.344274
1615191812.565093506 0.068403 -0.014200 0.085993  103.931231 30.747983   0.921865 -0.026327  2.165403 5.344489
1615191812.582593852 0.069616 -0.013669 0.097034  103.931231 30.747983   0.923829 -0.026827  2.185249 5.344703
1615191812.600092988 0.073729 -0.010372 0.094442  103.931232 30.747983   0.925840 -0.027168  2.205130 5.344912
1615191812.617595436 0.078865 -0.008282 0.089991  103.931232 30.747983   0.927784 -0.027740  2.225049 5.345121
1615191812.635055254 0.083947 -0.007003 0.061966  103.931232 30.747983   0.930062 -0.028070  2.260994 5.353946
1615191812.652597291 0.082728 -0.009461 0.071226  103.931232 30.747983   0.932133 -0.028370  2.281092 5.354218
1615191812.670055190 0.074814 -0.002147 0.113709  103.931232 30.747983   0.932133 -0.028370  2.281092 5.354218
1615191812.687597823 0.057931 -0.004016 0.103011  103.931233 30.747983   0.933690 -0.028360  2.301219 5.354492
1615191812.705093247 0.056977 0.000880 0.097742  103.931233 30.747983   0.934847 -0.028664  2.321364 5.354765
1615191812.722602137 0.058076 -0.000010 0.134275  103.931233 30.747983   0.936885 -0.028705  2.336846 5.354420
1615191812.740092885 0.051177 -0.012975 0.175098  103.931233 30.747983   0.939267 -0.029317  2.357557 5.352881
1615191812.757595312 0.046484 -0.019814 0.113648  103.931233 30.747983   0.941338 -0.030391  2.378281 5.351321
1615191812.775090601 0.046484 -0.023987 0.109781  103.931234 30.747983   0.943533 -0.031147  2.399016 5.349746
1615191812.792594107 0.042218 -0.021912 0.112005  103.931234 30.747983   0.945733 -0.031451  2.419772 5.348161
1615191812.810095482 0.041970 -0.015232 0.112936  103.931234 30.747983   0.945733 -0.031451  2.419772 5.348161
1615191812.827592781 0.033463 -0.019229 0.088305  103.931234 30.747983   0.947818 -0.031731  2.440548 5.346576
1615191812.845094375 0.021056 -0.026867 0.080877  103.931234 30.747983   0.949346 -0.032422  2.461334 5.344991
1615191812.862592944 0.012360 -0.029152 0.049932  103.931235 30.747983   0.950460 -0.033368  2.482120 5.343389
1615191812.880096702 -0.004188 -0.034275 -0.004740  103.931235 30.747983   0.951127 -0.034108  2.502899 5.341771
1615191812.897598804 -0.006171 -0.045179 0.045784  103.931235 30.747983   0.951789 -0.035688  2.523669 5.340125
1615191812.915055065 -0.003159 -0.049166 -0.045204  103.931235 30.747983   0.951789 -0.035688  2.523669 5.340125
1615191812.932593242 -0.007795 -0.054852 0.002532  103.931235 30.747983   0.952983 -0.037238  2.539443 5.338707
1615191812.950093264 -0.021163 -0.051630 0.033470  103.931236 30.747983   0.953526 -0.040776  2.580352 5.336813
1615191812.967593136 -0.025364 -0.057221 0.013764  103.931236 30.747983   0.953526 -0.040776  2.580352 5.336813
1615191812.985098609 -0.020730 -0.061849 0.053216  103.931236 30.747983   0.953955 -0.042782  2.600783 5.335831
1615191813.002598246 -0.019610 -0.068565 0.018217  103.931236 30.747983   0.954617 -0.044866  2.621205 5.334820
1615191813.020096761 -0.015472 -0.073622 0.021729  103.931236 30.747983   0.955267 -0.047147  2.641621 5.333775
1615191813.037592926 -0.015225 -0.072232 0.052692  103.931236 30.747983   0.955948 -0.049200  2.662034 5.332701
1615191813.055096033 -0.017449 -0.079316 0.097906  103.931236 30.747983   0.955948 -0.049200  2.662034 5.332701
1615191813.072593145 -0.023052 -0.083718 0.112482  103.931237 30.747983   0.956075 -0.051627  2.689855 5.309511
1615191813.090093658 -0.031850 -0.078125 0.048478  103.931237 30.747983   0.955422 -0.056068  2.730397 5.307137
1615191813.107598553 -0.037745 -0.080060 0.023608  103.931237 30.747983   0.955422 -0.056068  2.730397 5.307137
1615191813.125090745 -0.047285 -0.070813 0.086081  103.931237 30.747983   0.954557 -0.057734  2.745395 5.306246
1615191813.142595104 -0.045951 -0.070213 0.058430  103.931238 30.747983   0.953258 -0.059768  2.764171 5.305545
1615191813.160095465 -0.035966 -0.080400 0.087830  103.931238 30.747983   0.952564 -0.061961  2.782932 5.304817
1615191813.177592947 -0.034330 -0.088222 0.078995  103.931238 30.747983   0.951872 -0.064625  2.801687 5.304048
1615191813.195093007 -0.047343 -0.095961 0.084093  103.931238 30.747983   0.950138 -0.067467  2.820420 5.303234
1615191813.212563103 -0.053958 -0.115382 0.075233  103.931238 30.747983   0.950138 -0.067467  2.820420 5.303234
1615191813.230049188 -0.043554 -0.124716 0.027990  103.931238 30.747983   0.948208 -0.073931  2.857812 5.301436
1615191813.247548635 -0.041397 -0.117618 0.090427  103.931238 30.747983   0.948208 -0.073931  2.857812 5.301436
1615191813.265090334 -0.050062 -0.118001 0.018167  103.931239 30.747983   0.947012 -0.076382  2.876492 5.300464
1615191813.282593427 -0.054094 -0.119098 0.080251  103.931239 30.747983   0.945492 -0.079245  2.895146 5.299448
1615191813.300050421 -0.046800 -0.120144 0.013516  103.931239 30.747983   0.944624 -0.082039  2.913780 5.298380
1615191813.317549724 -0.050794 -0.109396 -0.016047  103.931239 30.747983   0.944058 -0.084025  2.928254 5.297660
1615191813.335049671 -0.067140 -0.115050 -0.078362  103.931239 30.747983   0.943167 -0.085835  2.949196 5.296877
1615191813.352548911 -0.085861 -0.120198 -0.087431  103.931239 30.747983   0.943167 -0.085835  2.949196 5.296877
1615191813.370097898 -0.098655 -0.125098 -0.055096  103.931240 30.747983   0.942247 -0.087634  2.970095 5.296041
1615191813.387550752 -0.101128 -0.124627 -0.099317  103.931240 30.747983   0.941093 -0.089604  2.990951 5.295152
1615191813.405049741 -0.111076 -0.121966 -0.115902  103.931240 30.747983   0.939853 -0.091352  3.011757 5.294215
1615191813.422549292 -0.118176 -0.125398 -0.139587  103.931240 30.747983   0.938303 -0.093539  3.032510 5.293229
1615191813.440049268 -0.113279 -0.128090 -0.021526  103.931241 30.747983   0.937319 -0.095584  3.053215 5.292191
1615191813.457550034 -0.118749 -0.131493 -0.058355  103.931241 30.747983   0.936014 -0.097681  3.073878 5.291099
1615191813.475049861 -0.127378 -0.133653 -0.093245  103.931241 30.747983   0.933753 -0.099874  3.100012 5.296386
1615191813.492548836 -0.166896 -0.140978 -0.095413  103.931241 30.747983   0.933753 -0.099874  3.100012 5.296386
1615191813.510049854 -0.192725 -0.141777 -0.065834  103.931241 30.747983   0.930406 -0.102244  3.120655 5.295268
1615191813.527551096 -0.197437 -0.129475 -0.030696  103.931241 30.747983   0.927111 -0.104224  3.136152 5.294523
1615191813.545050423 -0.192460 -0.126386 -0.073036  103.931242 30.747983   0.924260 -0.105617  3.155445 5.293561
1615191813.562550549 -0.189070 -0.115231 -0.046268  103.931242 30.747983   0.921756 -0.106997  3.174662 5.292558
1615191813.580049623 -0.203626 -0.109132 -0.034752  103.931242 30.747983   0.918540 -0.108164  3.193798 5.291519
1615191813.597549466 -0.217543 -0.106641 -0.040306  103.931242 30.747983   0.914970 -0.109500  3.212844 5.290439
1615191813.615049751 -0.222798 -0.107466 -0.046293  103.931242 30.747983   0.911100 -0.111024  3.231799 5.289319
1615191813.632549150 -0.236706 -0.114734 -0.011031  103.931242 30.747983   0.911100 -0.111024  3.231799 5.289319
1615191813.650050568 -0.246076 -0.102508 -0.053212  103.931243 30.747983   0.906874 -0.112638  3.250652 5.288155
1615191813.667552569 -0.253648 -0.085025 -0.066641  103.931243 30.747982   0.902641 -0.113570  3.269397 5.286951
1615191813.685050263 -0.255145 -0.082145 -0.044210  103.931243 30.747982   0.898341 -0.114140  3.288039 5.285717
1615191813.702552900 -0.256250 -0.076089 -0.046093  103.931243 30.747982   0.894017 -0.114801  3.306579 5.284461
1615191813.720050441 -0.266627 -0.079398 -0.057931  103.931243 30.747982   0.888668 -0.116718  3.320370 5.282502
1615191813.737550248 -0.295163 -0.075281 -0.058346  103.931244 30.747982   0.881952 -0.119848  3.338167 5.276856
1615191813.755050387 -0.313688 -0.056001 -0.044954  103.931244 30.747982   0.874990 -0.122023  3.355837 5.271192
1615191813.772548963 -0.317236 -0.049342 -0.012634  103.931244 30.747982   0.874990 -0.122023  3.355837 5.271192
1615191813.790048878 -0.310818 -0.033414 -0.006414  103.931244 30.747982   0.868219 -0.123812  3.373372 5.265517
1615191813.807550494 -0.294442 -0.022060 0.011391  103.931244 30.747982   0.862203 -0.125281  3.390781 5.259835
1615191813.825049664 -0.294077 -0.020416 0.019882  103.931244 30.747982   0.856548 -0.126757  3.408081 5.254147
1615191813.842549137 -0.303761 -0.021505 0.008018  103.931244 30.747982   0.850284 -0.128440  3.425268 5.248461
1615191813.860048955 -0.309939 -0.024083 -0.021469  103.931245 30.747982   0.843199 -0.130304  3.442323 5.242763
1615191813.877550088 -0.326933 -0.023105 0.047094  103.931245 30.747982   0.843199 -0.130304  3.442323 5.242763
1615191813.895049724 -0.335419 0.013088 0.109080  103.931245 30.747982   0.829086 -0.131988  3.467496 5.202251
1615191813.912594307 -0.337210 0.023668 0.013704  103.931245 30.747982   0.821595 -0.132162  3.479506 5.197290
1615191813.930096611 -0.338082 0.038271 0.021786  103.931245 30.747982   0.821595 -0.132162  3.479506 5.197290
1615191813.947609764 -0.330739 0.050042 0.072847  103.931245 30.747982   0.813715 -0.132728  3.494271 5.191728
1615191813.965095763 -0.324655 0.055941 0.079599  103.931245 30.747982   0.806243 -0.132975  3.508904 5.186188
1615191813.982616968 -0.322909 0.063805 0.084871  103.931245 30.747982   0.798905 -0.133119  3.523408 5.180673
1615191814.000095237 -0.324333 0.074585 0.095388  103.931246 30.747981   0.791394 -0.132363  3.537787 5.175196
1615191814.017594602 -0.325117 0.100388 0.115368  103.931246 30.747981   0.783965 -0.130936  3.552038 5.169772
1615191814.035054325 -0.327221 0.123922 0.050655  103.931246 30.747981   0.776437 -0.129282  3.566160 5.164406
1615191814.052549449 -0.333304 0.127675 0.079132  103.931246 30.747981   0.768656 -0.128065  3.580147 5.159095
1615191814.070047882 -0.335281 0.118738 0.085983  103.931246 30.747981   0.768656 -0.128065  3.580147 5.159095
1615191814.087552649 -0.332160 0.124853 0.099884  103.931246 30.747981   0.761082 -0.127283  3.593997 5.153827
1615191814.105049788 -0.332442 0.147529 0.108151  103.931246 30.747981   0.753607 -0.125630  3.607716 5.148606
1615191814.122548509 -0.332613 0.158435 0.079117  103.931246 30.747981   0.746366 -0.122452  3.618036 5.144904
1615191814.140049160 -0.325188 0.179527 0.092534  103.931247 30.747981   0.739979 -0.117728  3.632872 5.142061
1615191814.157548235 -0.317952 0.183208 0.083712  103.931247 30.747981   0.733962 -0.113162  3.647588 5.139303
1615191814.175049830 -0.320411 0.185905 0.088907  103.931247 30.747981   0.727639 -0.108851  3.662183 5.136620
1615191814.192591885 -0.323038 0.183776 0.017467  103.931247 30.747981   0.720929 -0.104801  3.676645 5.134005
1615191814.210093481 -0.328370 0.178668 -0.015802  103.931247 30.747981   0.720929 -0.104801  3.676645 5.134005
1615191814.227592826 -0.335331 0.169431 -0.028814  103.931247 30.747981   0.714150 -0.100936  3.690969 5.131460
1615191814.245094944 -0.327735 0.167085 -0.052692  103.931247 30.747981   0.707260 -0.097434  3.705154 5.128980
1615191814.262594321 -0.328446 0.167080 -0.044781  103.931247 30.747981   0.700885 -0.093654  3.719212 5.126563
1615191814.280096942 -0.331405 0.170315 -0.025633  103.931248 30.747981   0.694406 -0.089795  3.733146 5.124216
1615191814.297590434 -0.336542 0.171275 -0.148022  103.931248 30.747981   0.687345 -0.085950  3.746941 5.121936
1615191814.315096955 -0.335147 0.170544 -0.131088  103.931248 30.747981   0.687345 -0.085950  3.746941 5.121936
1615191814.332592768 -0.338549 0.168975 -0.138527  103.931248 30.747981   0.673810 -0.077129  3.744999 5.135657
1615191814.350100350 -0.336481 0.157951 -0.140039  103.931248 30.747981   0.667432 -0.072738  3.756656 5.136218
1615191814.367553498 -0.322856 0.152514 -0.131793  103.931248 30.747981   0.667432 -0.072738  3.756656 5.136218
1615191814.385049196 -0.312155 0.154169 -0.110149  103.931248 30.747981   0.661567 -0.068264  3.768187 5.136829
1615191814.402548366 -0.315126 0.155660 -0.081238  103.931248 30.747981   0.655597 -0.063568  3.779600 5.137503
1615191814.420048971 -0.318527 0.144597 -0.095863  103.931248 30.747981   0.649232 -0.059335  3.790888 5.138233
1615191814.437547959 -0.316191 0.136305 -0.078817  103.931248 30.747981   0.643141 -0.055719  3.802047 5.139010
1615191814.455048492 -0.310841 0.115670 -0.092859  103.931248 30.747981   0.643141 -0.055719  3.802047 5.139010
1615191814.472547865 -0.306917 0.106264 -0.098662  103.931248 30.747981   0.637239 -0.052687  3.813085 5.139826
1615191814.490049979 -0.308595 0.095752 -0.069689  103.931249 30.747981   0.625106 -0.046767  3.834802 5.141570
1615191814.507547781 -0.305981 0.092705 -0.001343  103.931249 30.747981   0.625106 -0.046767  3.834802 5.141570
1615191814.525090867 -0.304351 0.091949 0.032409  103.931249 30.747981   0.619209 -0.043766  3.842790 5.142905
1615191814.542596488 -0.304351 0.091949 0.032409  103.931249 30.747981   0.613377 -0.040846  3.854829 5.142783
1615191814.560093949 -0.301520 0.087487 -0.020569  103.931249 30.747981   0.607778 -0.037999  3.866744 5.142695
1615191814.577552768 -0.297081 0.086592 0.003037  103.931249 30.747981   0.602167 -0.035613  3.878539 5.142640
1615191814.595049416 -0.295653 0.075144 -0.048586  103.931249 30.747981   0.602167 -0.035613  3.878539 5.142640
1615191814.612592764 -0.287572 0.064394 -0.074733  103.931249 30.747981   0.596630 -0.033550  3.890217 5.142611
1615191814.630110129 -0.281978 0.059342 -0.082510  103.931250 30.747981   0.586228 -0.029575  3.913242 5.142617
1615191814.647553427 -0.272511 0.060602 -0.061520  103.931250 30.747981   0.586228 -0.029575  3.913242 5.142617
1615191814.665051692 -0.268065 0.065168 -0.019268  103.931250 30.747981   0.581376 -0.027378  3.924595 5.142657
1615191814.682549088 -0.264669 0.068547 -0.036549  103.931250 30.747981   0.576516 -0.024870  3.935846 5.142727
1615191814.700093173 -0.267131 0.079289 -0.011832  103.931250 30.747981   0.571329 -0.022324  3.946991 5.142828
1615191814.717601169 -0.271609 0.078910 -0.010796  103.931250 30.747981   0.565830 -0.019917  3.955324 5.143390
1615191814.735095365 -0.273247 0.073633 -0.009550  103.931250 30.747981   0.560168 -0.017613  3.965892 5.144915
1615191814.752596103 -0.271071 0.062419 -0.021635  103.931250 30.747981   0.560168 -0.017613  3.965892 5.144915
1615191814.770052912 -0.260229 0.052476 -0.017525  103.931250 30.747981   0.554779 -0.016032  3.979003 5.165094
1615191814.787549806 -0.253518 0.050238 0.005150  103.931250 30.747981   0.549889 -0.014568  3.989384 5.166612
1615191814.805048486 -0.240888 0.050370 -0.005131  103.931250 30.747981   0.545329 -0.013000  3.999670 5.168145
1615191814.822548125 -0.239835 0.052489 -0.020483  103.931251 30.747981   0.540552 -0.011196  4.009868 5.169701
1615191814.840049481 -0.236785 0.050369 -0.025082  103.931251 30.747981   0.535781 -0.009564  4.019973 5.171282
1615191814.857548024 -0.238716 0.040278 -0.024088  103.931251 30.747981   0.530712 -0.008512  4.029980 5.172878
1615191814.875049927 -0.242875 0.035651 -0.050787  103.931251 30.747981   0.525754 -0.007375  4.039890 5.174490
1615191814.892548301 -0.238187 0.043962 -0.049500  103.931251 30.747981   0.525754 -0.007375  4.039890 5.174490
1615191814.910048622 -0.224286 0.049033 -0.042839  103.931251 30.747981   0.521136 -0.005581  4.049706 5.176117
1615191814.927549432 -0.213292 0.046060 -0.056232  103.931251 30.747982   0.517119 -0.004030  4.057011 5.177355
1615191814.945047928 -0.211772 0.044302 -0.018950  103.931251 30.747982   0.513888 -0.003069  4.066500 5.178871
1615191814.962548774 -0.210347 0.041577 -0.018557  103.931251 30.747982   0.510397 -0.002216  4.075910 5.180406
1615191814.980048991 -0.215840 0.046330 -0.001717  103.931251 30.747982   0.506597 -0.001140  4.085233 5.181957
1615191814.997547865 -0.218352 0.051784 -0.011202  103.931251 30.747982   0.502701 0.000278  4.094467 5.183530
1615191815.015048777 -0.218282 0.049510 0.046263  103.931252 30.747982   0.499039 0.001321  4.103611 5.185127
1615191815.032547855 -0.209272 0.043623 0.049829  103.931252 30.747982   0.499039 0.001321  4.103611 5.185127
1615191815.050048648 -0.204728 0.041245 0.026859  103.931252 30.747982   0.495656 0.002064  4.112672 5.186741
1615191815.067548122 -0.206534 0.034141 0.027088  103.931252 30.747982   0.492176 0.002891  4.121654 5.188368
1615191815.085048973 -0.212521 0.032541 0.020010  103.931252 30.747982   0.488435 0.003467  4.130550 5.190003
1615191815.102571133 -0.217851 0.033333 0.035932  103.931252 30.747982   0.484471 0.004278  4.139360 5.191649
1615191815.120055189 -0.216493 0.033321 0.064941  103.931252 30.747982   0.481017 0.005189  4.146626 5.193058
1615191815.137595077 -0.211529 0.037126 0.034668  103.931252 30.747982   0.478754 0.006478  4.157914 5.194020
1615191815.155054774 -0.210878 0.030673 0.045348  103.931252 30.747982   0.476357 0.007411  4.169119 5.194994
1615191815.172553969 -0.212460 0.024740 0.089150  103.931252 30.747982   0.476357 0.007411  4.169119 5.194994
1615191815.190052216 -0.216416 0.012502 0.095920  103.931253 30.747982   0.473869 0.008079  4.202664 5.202825
1615191815.207551978 -0.222416 0.005641 0.083511  103.931253 30.747982   0.471445 0.008282  4.213936 5.203796
1615191815.225050663 -0.229258 0.001388 0.047044  103.931253 30.747982   0.468624 0.008538  4.225118 5.204767
1615191815.242551347 -0.238188 -0.003127 0.070558  103.931253 30.747982   0.465475 0.008778  4.236201 5.205732
1615191815.260050213 -0.242693 -0.005540 0.162472  103.931253 30.747982   0.462103 0.008753  4.247185 5.206693
1615191815.277549993 -0.245373 -0.011159 0.160761  103.931253 30.747982   0.458881 0.008678  4.258067 5.207644
1615191815.295049849 -0.249325 -0.021608 0.088957  103.931253 30.747982   0.455616 0.008534  4.268849 5.208593
1615191815.312549582 -0.246477 -0.020304 0.118956  103.931253 30.747982   0.451793 0.008213  4.276739 5.209127
1615191815.330049616 -0.236097 -0.027926 0.109542  103.931253 30.747982   0.451793 0.008213  4.276739 5.209127
1615191815.347550908 -0.229040 -0.036017 0.129747  103.931253 30.747982   0.447275 0.007479  4.284952 5.209404
1615191815.365049697 -0.227739 -0.041072 0.139860  103.931253 30.747982   0.442793 0.006710  4.293075 5.209660
1615191815.382549496 -0.233639 -0.043638 0.158714  103.931254 30.747982   0.438061 0.005906  4.301112 5.209898
1615191815.400066832 -0.241222 -0.047871 0.155771  103.931254 30.747982   0.432638 0.004883  4.309050 5.210116
1615191815.417550146 -0.251596 -0.050091 0.176955  103.931254 30.747982   0.427305 0.004097  4.316880 5.210309
1615191815.435049829 -0.240457 -0.045714 0.130928  103.931254 30.747982   0.422537 0.003435  4.324610 5.210487
1615191815.452550400 -0.237322 -0.048911 0.114470  103.931254 30.747982   0.418025 0.002455  4.332249 5.210646
1615191815.470049481 -0.227435 -0.052218 0.096428  103.931254 30.747982   0.418025 0.002455  4.332249 5.210646
1615191815.487549985 -0.230908 -0.058110 0.086846  103.931254 30.747982   0.413630 0.001452  4.339803 5.210780
1615191815.505050161 -0.239017 -0.069007 0.089731  103.931254 30.747982   0.408697 0.000159  4.347266 5.210893
1615191815.522549740 -0.241824 -0.069978 0.079700  103.931254 30.747982   0.403616 -0.001294  4.352798 5.210954
1615191815.540049796 -0.238602 -0.064364 0.051582  103.931254 30.747982   0.399462 -0.001510  4.360665 5.211698
1615191815.557550244 -0.238118 -0.059661 0.061634  103.931254 30.747982   0.395341 -0.001026  4.368434 5.212420
1615191815.575050505 -0.239011 -0.045792 0.066530  103.931254 30.747982   0.391135 -0.000577  4.376108 5.213132
1615191815.592549411 -0.238962 -0.050500 0.086372  103.931254 30.747982   0.387038 -0.000668  4.376766 5.211823
1615191815.610049171 -0.240520 -0.058929 0.044056  103.931254 30.747982   0.387038 -0.000668  4.376766 5.211823
1615191815.627549840 -0.244035 -0.071398 0.057066  103.931254 30.747982   0.382631 -0.001091  4.384224 5.212559
1615191815.645054042 -0.243000 -0.076634 0.087183  103.931255 30.747982   0.378124 -0.001833  4.391582 5.213257
1615191815.662549949 -0.241286 -0.075338 0.104645  103.931255 30.747982   0.373821 -0.002421  4.398842 5.213921
1615191815.680049520 -0.237934 -0.065380 0.123081  103.931255 30.747982   0.369691 -0.002572  4.406009 5.214556
1615191815.697549589 -0.237630 -0.061373 0.117315  103.931255 30.747982   0.365313 -0.002503  4.413082 5.215175
1615191815.715050605 -0.235490 -0.055666 0.135017  103.931255 30.747982   0.365313 -0.002503  4.413082 5.215175
1615191815.732550476 -0.226719 -0.055236 0.161283  103.931255 30.747982   0.358208 -0.003044  4.426256 5.215220
1615191815.750051257 -0.219255 -0.060472 0.156349  103.931255 30.747982   0.355002 -0.003712  4.433781 5.214909
1615191815.767549350 -0.222096 -0.063124 0.152674  103.931255 30.747982   0.355002 -0.003712  4.433781 5.214909
1615191815.785049944 -0.233647 -0.067169 0.195841  103.931255 30.747982   0.351273 -0.004464  4.441219 5.214574
1615191815.802550173 -0.237103 -0.064930 0.203065  103.931255 30.747982   0.347147 -0.005262  4.448560 5.214207
1615191815.820050375 -0.241658 -0.059751 0.196714  103.931255 30.747982   0.343015 -0.005813  4.455803 5.213817
1615191815.837549734 -0.244363 -0.057835 0.140470  103.931255 30.747982   0.338900 -0.006189  4.462947 5.213406
1615191815.855050741 -0.237249 -0.052629 0.089767  103.931255 30.747982   0.338900 -0.006189  4.462947 5.213406
1615191815.872550034 -0.219735 -0.053135 0.058414  103.931255 30.747982   0.332313 -0.007078  4.476961 5.212530
1615191815.890050178 -0.212770 -0.051354 0.056438  103.931255 30.747982   0.328921 -0.007583  4.483848 5.212059
1615191815.907553376 -0.207627 -0.054908 0.069663  103.931255 30.747982   0.328921 -0.007583  4.483848 5.212059
1615191815.925049914 -0.204056 -0.055465 0.061524  103.931256 30.747982   0.325690 -0.008216  4.489094 5.211518
1615191815.942550391 -0.205181 -0.053437 0.102489  103.931256 30.747982   0.322226 -0.009038  4.495657 5.210744
1615191815.960050169 -0.214789 -0.047948 0.083465  103.931256 30.747982   0.318355 -0.009508  4.502132 5.209946
1615191815.977549379 -0.218878 -0.045633 0.075474  103.931256 30.747982   0.314289 -0.009859  4.508515 5.209132
1615191815.995050265 -0.216688 -0.043103 0.043932  103.931256 30.747982   0.314289 -0.009859  4.508515 5.209132
1615191816.012549748 -0.213224 -0.049843 0.029286  103.931256 30.747982   0.310598 -0.010453  4.514809 5.208300
1615191816.030049890 -0.211361 -0.050854 0.052571  103.931256 30.747982   0.303073 -0.012379  4.535640 5.193669
1615191816.047550611 -0.209120 -0.053598 0.058054  103.931256 30.747982   0.303073 -0.012379  4.535640 5.193669
1615191816.065050758 -0.203008 -0.047594 0.063326  103.931256 30.747982   0.299478 -0.013275  4.541633 5.192659
1615191816.082550003 -0.203008 -0.047594 0.063326  103.931256 30.747982   0.296001 -0.013803  4.547546 5.191637
1615191816.100049818 -0.203370 -0.019328 0.089254  103.931256 30.747982   0.292453 -0.013585  4.553381 5.190606
1615191816.117549512 -0.212692 -0.010159 0.081957  103.931256 30.747982   0.288040 -0.013682  4.557523 5.189769
1615191816.135053030 -0.217962 -0.010656 -0.018488  103.931256 30.747982   0.283045 -0.014311  4.562069 5.188941
1615191816.152552093 -0.224103 -0.009464 -0.014937  103.931256 30.747982   0.283045 -0.014311  4.562069 5.188941
1615191816.170050245 -0.219764 -0.015288 0.031243  103.931256 30.747982   0.278151 -0.014994  4.566520 5.188114
1615191816.187549569 -0.205498 -0.020898 0.013509  103.931256 30.747982   0.273679 -0.016070  4.570885 5.187282
1615191816.205050322 -0.201054 -0.021527 -0.037657  103.931256 30.747982   0.269686 -0.017166  4.575175 5.186431
1615191816.222549202 -0.192891 -0.020271 -0.009840  103.931256 30.747982   0.266008 -0.018045  4.579394 5.185575
1615191816.240094613 -0.179261 -0.007861 0.054029  103.931257 30.747982   0.262490 -0.018565  4.583548 5.184714
1615191816.257597823 -0.177019 0.005352 0.054712  103.931257 30.747982   0.258702 -0.018555  4.587633 5.183858
1615191816.275095990 -0.172113 0.010734 0.043730  103.931257 30.747982   0.255186 -0.018426  4.591648 5.183012
1615191816.292595653 -0.167857 0.019703 0.039513  103.931257 30.747982   0.255186 -0.018426  4.591648 5.183012
1615191816.310096496 -0.167157 0.023685 0.087337  103.931257 30.747982   0.251706 -0.018178  4.595595 5.182180
1615191816.327605682 -0.159734 0.022333 0.102442  103.931257 30.747982   0.248369 -0.018029  4.598791 5.181329
1615191816.345055383 -0.161249 0.023985 0.095841  103.931257 30.747982   0.245828 -0.017836  4.604148 5.179754
1615191816.362551903 -0.163746 0.026109 0.091150  103.931257 30.747982   0.242940 -0.017544  4.609445 5.178191
1615191816.380053443 -0.170192 0.030225 0.097989  103.931257 30.747982   0.239836 -0.017122  4.614674 5.176636
1615191816.397551578 -0.172740 0.044673 0.133893  103.931257 30.747981   0.236777 -0.016135  4.619833 5.175099
1615191816.415055105 -0.173410 0.052626 0.131414  103.931257 30.747981   0.233565 -0.014773  4.624919 5.173593
1615191816.432555216 -0.174896 0.062190 0.121635  103.931257 30.747981   0.233565 -0.014773  4.624919 5.173593
1615191816.450051458 -0.172419 0.074361 0.100813  103.931257 30.747981   0.230451 -0.013429  4.629934 5.172120
1615191816.467593739 -0.173203 0.081701 0.072492  103.931257 30.747981   0.227513 -0.011701  4.636972 5.162456
1615191816.485099115 -0.171254 0.082986 0.079528  103.931257 30.747981   0.224362 -0.010084  4.641861 5.161059
1615191816.502553533 -0.175553 0.091784 0.018342  103.931257 30.747981   0.221104 -0.008262  4.646680 5.159696
1615191816.520055159 -0.181251 0.100178 0.016300  103.931257 30.747981   0.217249 -0.006122  4.650051 5.158267
1615191816.537592245 -0.192769 0.117351 0.041538  103.931257 30.747981   0.212669 -0.003956  4.653187 5.155869
1615191816.555053030 -0.194392 0.125655 -0.012549  103.931257 30.747981   0.208144 -0.001553  4.656244 5.153527
1615191816.572593446 -0.203446 0.136767 -0.018280  103.931257 30.747981   0.208144 -0.001553  4.656244 5.153527
1615191816.590055134 -0.205378 0.158993 -0.033611  103.931257 30.747981   0.203373 0.001154  4.659214 5.151243
1615191816.607554414 -0.185621 0.184886 -0.062970  103.931257 30.747981   0.198941 0.004673  4.662097 5.149035
1615191816.625053805 -0.175221 0.196864 -0.009496  103.931257 30.747981   0.195639 0.008822  4.664908 5.146914
1615191816.642554950 -0.164960 0.221949 -0.016346  103.931257 30.747981   0.192199 0.013532  4.667660 5.144886
1615191816.660055069 -0.162892 0.228353 -0.015017  103.931257 30.747981   0.188745 0.018018  4.670352 5.142966
1615191816.677553454 -0.170151 0.220396 -0.001547  103.931257 30.747981   0.184863 0.021944  4.672979 5.141133
1615191816.695053550 -0.173318 0.225582 0.021101  103.931257 30.747981   0.180781 0.026184  4.675532 5.139383
1615191816.712555510 -0.177597 0.243296 0.018136  103.931258 30.747981   0.177174 0.031689  4.677590 5.138386
1615191816.730052775 -0.184238 0.266086 -0.050611  103.931258 30.747981   0.177174 0.031689  4.677590 5.138386
1615191816.747553412 -0.176703 0.282917 -0.043520  103.931258 30.747981   0.173982 0.037717  4.681238 5.138988
1615191816.765053692 -0.165327 0.295326 -0.002468  103.931258 30.747981   0.171466 0.044035  4.684813 5.139706
1615191816.782553694 -0.166804 0.297737 0.035004  103.931258 30.747981   0.168958 0.050422  4.688332 5.140553
1615191816.800055110 -0.175036 0.298113 0.001341  103.931258 30.747981   0.165584 0.056530  4.691781 5.141522
1615191816.817553956 -0.194247 0.304064 0.027956  103.931258 30.747981   0.161832 0.062702  4.695145 5.142605
1615191816.835050573 -0.190828 0.323737 0.042297  103.931258 30.747981   0.158606 0.069696  4.698428 5.143816
1615191816.852590479 -0.191814 0.332309 0.016497  103.931258 30.747981   0.155188 0.077030  4.701635 5.145169
1615191816.870052622 -0.194588 0.330475 0.015896  103.931258 30.747981   0.155188 0.077030  4.701635 5.145169
1615191816.887551402 -0.195415 0.320380 0.021180  103.931258 30.747981   0.151692 0.083638  4.705867 5.144400
1615191816.905053751 -0.193144 0.314637 0.029976  103.931258 30.747981   0.148451 0.090267  4.709002 5.146199
1615191816.922553028 -0.191525 0.317788 0.012164  103.931258 30.747981   0.145156 0.097454  4.711474 5.147984
1615191816.940053210 -0.194623 0.310557 -0.011948  103.931258 30.747981   0.141357 0.105604  4.714615 5.150781
1615191816.957556836 -0.192104 0.314448 0.053649  103.931258 30.747981   0.138201 0.113888  4.717680 5.153699
1615191816.975053316 -0.184018 0.306173 0.071020  103.931258 30.747981   0.135035 0.121718  4.720679 5.156742
1615191816.992594079 -0.190064 0.302164 0.051735  103.931258 30.747981   0.131273 0.129275  4.723602 5.159897
1615191817.010093336 -0.193765 0.295328 0.056607  103.931258 30.747981   0.131273 0.129275  4.723602 5.159897
1615191817.027596424 -0.201072 0.277178 0.041580  103.931258 30.747981   0.127576 0.136646  4.726443 5.163166
1615191817.045094671 -0.199604 0.252685 0.006975  103.931258 30.747981   0.123635 0.143141  4.729197 5.166544
1615191817.062593781 -0.194396 0.245793 0.035559  103.931258 30.747981   0.120030 0.149030  4.731871 5.170004
1615191817.080096104 -0.177786 0.240297 0.017277  103.931258 30.747981   0.117233 0.155152  4.734476 5.173553
1615191817.097592690 -0.178240 0.236704 0.028348  103.931258 30.747982   0.113824 0.161194  4.737019 5.177200
1615191817.115094162 -0.188191 0.208770 0.039291  103.931258 30.747982   0.109931 0.165980  4.738874 5.179986
1615191817.132592473 -0.182064 0.196830 0.048122  103.931258 30.747982   0.106338 0.169168  4.739920 5.183224
1615191817.150095647 -0.171353 0.180489 0.053133  103.931258 30.747982   0.106338 0.169168  4.739920 5.183224
1615191817.167593613 -0.174103 0.163601 0.022407  103.931258 30.747982   0.102990 0.172133  4.740904 5.186525
1615191817.185095661 -0.160725 0.141109 0.032472  103.931258 30.747982   0.099342 0.174639  4.741816 5.189885
1615191817.202590557 -0.151432 0.132153 -0.050200  103.931258 30.747982   0.096233 0.176600  4.742673 5.193286
1615191817.220095789 -0.137686 0.115493 -0.036943  103.931258 30.747982   0.093576 0.178319  4.743479 5.196733
1615191817.237592493 -0.128445 0.114383 -0.007807  103.931258 30.747982   0.091057 0.180189  4.744244 5.200214
1615191817.255055385 -0.133034 0.081921 -0.054956  103.931258 30.747982   0.088105 0.181218  4.744951 5.203722
1615191817.272593867 -0.117467 0.072022 -0.048543  103.931258 30.747982   0.086217 0.181975  4.745614 5.207244
1615191817.290095639 -0.113686 0.061551 -0.028143  103.931258 30.747982   0.086217 0.181975  4.745614 5.207244
1615191817.307594626 -0.116160 0.048324 -0.046594  103.931258 30.747982   0.083631 0.182760  4.743846 5.219939
1615191817.325093961 -0.094805 0.038032 0.022860  103.931258 30.747982   0.081392 0.183121  4.744161 5.222596
1615191817.342593442 -0.090575 0.037496 -0.039966  103.931258 30.747982   0.080046 0.184192  4.745084 5.228301
1615191817.360098460 -0.093690 0.018686 -0.121825  103.931258 30.747982   0.078140 0.184810  4.745977 5.234014
1615191817.377592214 -0.093388 0.010448 -0.093238  103.931258 30.747982   0.076125 0.184810  4.746827 5.239723
1615191817.395054346 -0.092900 -0.021071 -0.213054  103.931258 30.747982   0.076125 0.184810  4.746827 5.239723
1615191817.412592572 -0.102346 -0.050460 -0.251787  103.931258 30.747982   0.071865 0.182321  4.748412 5.251061
1615191817.430090128 -0.101387 -0.080330 -0.221296  103.931258 30.747982   0.070130 0.180326  4.749139 5.256669
1615191817.447596589 -0.081891 -0.092398 -0.241911  103.931258 30.747982   0.070130 0.180326  4.749139 5.256669
1615191817.465092211 -0.073611 -0.094997 -0.266445  103.931258 30.747982   0.069051 0.178741  4.749842 5.262231
1615191817.482592932 -0.072471 -0.099271 -0.141104  103.931258 30.747982   0.067838 0.177049  4.750520 5.267758
1615191817.500092920 -0.053689 -0.116634 -0.087109  103.931258 30.747982   0.067220 0.175017  4.751172 5.273241
1615191817.517604232 -0.049511 -0.128562 -0.114014  103.931258 30.747982   0.066479 0.172402  4.751626 5.277725
1615191817.535052789 -0.056780 -0.139216 -0.134356  103.931258 30.747982   0.065813 0.169282  4.753154 5.283932
1615191817.552551996 -0.053492 -0.159119 -0.034204  103.931258 30.747982   0.065813 0.169282  4.753154 5.283932
1615191817.570094053 -0.053412 -0.169756 -0.062129  103.931258 30.747983   0.065276 0.165767  4.754658 5.290069
1615191817.587607157 -0.071218 -0.179493 -0.058022  103.931258 30.747983   0.064572 0.162334  4.756139 5.296131
1615191817.605093879 -0.076250 -0.202544 -0.055113  103.931258 30.747983   0.063077 0.158483  4.757587 5.302119
1615191817.622593051 -0.081349 -0.214649 -0.045584  103.931258 30.747983   0.061836 0.153875  4.758997 5.308019
1615191817.640092981 -0.097240 -0.216456 -0.029745  103.931258 30.747983   0.060105 0.149757  4.760366 5.313827
1615191817.657594602 -0.087499 -0.224791 -0.012762  103.931258 30.747983   0.058621 0.145190  4.761689 5.319543
1615191817.675054844 -0.085233 -0.231545 -0.109399  103.931258 30.747983   0.057653 0.140459  4.762985 5.325169
1615191817.692616764 -0.090555 -0.233473 -0.038972  103.931258 30.747983   0.057653 0.140459  4.762985 5.325169
1615191817.710092233 -0.086877 -0.252447 -0.051781  103.931258 30.747983   0.056136 0.135900  4.764238 5.330697
1615191817.727592829 -0.114500 -0.286659 -0.011223  103.931258 30.747983   0.054589 0.130128  4.765417 5.335439
1615191817.745092534 -0.131059 -0.305487 -0.036627  103.931259 30.747983   0.051213 0.122995  4.774697 5.380991
1615191817.762592159 -0.146238 -0.322129 -0.070330  103.931259 30.747983   0.047587 0.115757  4.775795 5.385408
1615191817.780089876 -0.125588 -0.298016 -0.017141  103.931259 30.747983   0.045495 0.109760  4.776836 5.389692
1615191817.797595460 -0.108197 -0.274281 -0.031618  103.931259 30.747983   0.043648 0.104911  4.777840 5.393877
1615191817.815092589 -0.094480 -0.270961 0.014359  103.931259 30.747983   0.042659 0.099581  4.778813 5.397971
1615191817.832592767 -0.091674 -0.273561 0.057281  103.931259 30.747983   0.042659 0.099581  4.778813 5.397971
1615191817.850092584 -0.124915 -0.304145 0.011951  103.931259 30.747984   0.040533 0.093626  4.779764 5.401960
1615191817.867592564 -0.145155 -0.324083 -0.008377  103.931259 30.747984   0.036986 0.086269  4.780647 5.405817
1615191817.885095535 -0.152543 -0.325178 0.006765  103.931259 30.747984   0.033581 0.079208  4.781457 5.409530
1615191817.902594306 -0.141822 -0.326348 -0.061478  103.931259 30.747984   0.030466 0.072275  4.782200 5.413106
1615191817.920052357 -0.126100 -0.322471 -0.095248  103.931259 30.747984   0.029010 0.066084  4.782878 5.415418
1615191817.937592606 -0.115329 -0.294312 -0.047602  103.931259 30.747984   0.026873 0.060426  4.783824 5.416949
1615191817.955055157 -0.110597 -0.291084 -0.077154  103.931259 30.747984   0.024857 0.054277  4.784729 5.418375
1615191817.972554798 -0.120443 -0.303317 -0.036249  103.931259 30.747984   0.024857 0.054277  4.784729 5.418375
1615191817.990110174 -0.137642 -0.316988 -0.039598  103.931259 30.747984   0.021962 0.047458  4.785585 5.419671
1615191818.007591145 -0.135944 -0.313976 -0.061529  103.931259 30.747984   0.018780 0.040395  4.786379 5.420836
1615191818.025097048 -0.131459 -0.309719 -0.008767  103.931259 30.747984   0.016323 0.033916  4.787117 5.421874
1615191818.042592806 -0.120152 -0.296007 0.021444  103.931259 30.747984   0.014329 0.028117  4.787809 5.422805
1615191818.060096351 -0.115485 -0.293141 -0.043036  103.931259 30.747984   0.012439 0.022066  4.788463 5.423616
1615191818.077593204 -0.089428 -0.292304 -0.040884  103.931259 30.747984   0.011218 0.015852  4.789082 5.424313
1615191818.095054953 -0.097411 -0.296920 -0.047404  103.931259 30.747984   0.008982 0.009467  4.789669 5.424893
1615191818.112595274 -0.100157 -0.309738 -0.090085  103.931259 30.747984   0.006979 0.002295  4.790056 5.424699
1615191818.130090398 -0.082361 -0.304401 -0.082176  103.931259 30.747984   0.006979 0.002295  4.790056 5.424699
1615191818.147532126 -0.078567 -0.303323 -0.081196  103.931259 30.747984   0.005531 -0.004383  4.790077 5.423575
1615191818.165049785 -0.073665 -0.306253 -0.121765  103.931259 30.747983   0.003744 -0.011453  4.793868 5.396344
1615191818.182594748 -0.054057 -0.299806 -0.073401  103.931259 30.747983   0.002979 -0.018194  4.793846 5.394958
1615191818.200093245 -0.050217 -0.289390 -0.054600  103.931259 30.747983   0.001957 -0.024406  4.793806 5.393453
1615191818.217606711 -0.036520 -0.277755 -0.114659  103.931259 30.747983   0.001114 -0.030437  4.793746 5.391834
1615191818.235105142 -0.028749 -0.273206 -0.063919  103.931259 30.747983   0.000885 -0.036218  4.793680 5.390111
1615191818.252599167 -0.022441 -0.262245 -0.048386  103.931259 30.747983   0.000165 -0.041877  4.793617 5.388297
1615191818.270102568 -0.018598 -0.258147 -0.060536  103.931259 30.747983   0.000165 -0.041877  4.793617 5.388297
1615191818.287554855 -0.010297 -0.266248 -0.015877  103.931259 30.747983   -0.000119 -0.047766  4.793553 5.386387
1615191818.305093176 -0.006760 -0.264538 -0.160283  103.931259 30.747983   -0.000317 -0.053912  4.793489 5.384367
1615191818.322594241 0.005797 -0.242796 -0.193283  103.931259 30.747983   -0.000503 -0.059186  4.793441 5.382782
1615191818.340093360 0.001704 -0.239543 -0.110592  103.931259 30.747983   -0.000576 -0.064191  4.792525 5.380064
1615191818.357591455 0.008072 -0.221548 -0.102833  103.931259 30.747983   -0.000420 -0.068784  4.791617 5.377267
1615191818.375095753 0.015499 -0.210067 -0.078299  103.931259 30.747983   -0.000100 -0.073072  4.790717 5.374386
1615191818.392593424 0.011062 -0.196612 -0.067945  103.931259 30.747983   -0.000443 -0.077263  4.789828 5.371440
1615191818.410097886 0.014564 -0.195259 -0.104043  103.931259 30.747983   -0.000443 -0.077263  4.789828 5.371440
1615191818.427594011 0.026076 -0.180394 -0.125246  103.931259 30.747983   -0.000200 -0.081675  4.788942 5.368420
1615191818.445092697 0.027923 -0.172111 -0.100744  103.931259 30.747983   0.000489 -0.085337  4.788065 5.365330
1615191818.462596456 0.028215 -0.148829 -0.118766  103.931259 30.747983   0.001093 -0.088375  4.787205 5.362179
1615191818.480103499 0.021079 -0.138567 -0.098909  103.931259 30.747983   0.001062 -0.091422  4.786354 5.358978
1615191818.497556353 0.017893 -0.139525 -0.079185  103.931259 30.747983   0.001093 -0.094435  4.785502 5.355732
1615191818.515092708 0.013721 -0.124628 -0.116866  103.931259 30.747983   0.000995 -0.097271  4.784637 5.352949
1615191818.532593970 0.006016 -0.124561 -0.115259  103.931259 30.747983   0.000244 -0.100039  4.784034 5.350868
1615191818.550098262 0.008986 -0.112533 -0.065110  103.931259 30.747983   0.000244 -0.100039  4.784034 5.350868
1615191818.567599289 0.014441 -0.089434 -0.024399  103.931259 30.747983   0.000241 -0.102168  4.783427 5.348744
1615191818.585092596 0.017818 -0.069869 -0.059487  103.931259 30.747983   0.000247 -0.103386  4.773702 5.334653
1615191818.602588009 0.012423 -0.063138 -0.063132  103.931259 30.747983   0.000229 -0.104516  4.773120 5.332580
1615191818.620092701 0.003639 -0.050930 -0.029250  103.931259 30.747983   -0.000180 -0.105340  4.772543 5.330488
1615191818.637596100 -0.000838 -0.050704 -0.001738  103.931259 30.747983   -0.000891 -0.106335  4.771958 5.328381
1615191818.655095577 -0.023789 -0.038212 -0.032806  103.931258 30.747983   -0.002146 -0.106973  4.771361 5.326258
1615191818.672592507 -0.029853 -0.038899 -0.010637  103.931258 30.747983   -0.003440 -0.107786  4.770746 5.324126
1615191818.690098933 -0.026541 -0.020595 0.027586  103.931258 30.747983   -0.003440 -0.107786  4.770746 5.324126
1615191818.707590464 -0.017001 -0.013515 0.041584  103.931258 30.747983   -0.004126 -0.107794  4.770115 5.321991
1615191818.725094239 -0.032555 -0.008620 0.000181  103.931258 30.747983   -0.004710 -0.107912  4.769410 5.320257
1615191818.742592870 -0.043071 -0.004276 0.027766  103.931258 30.747983   -0.006414 -0.107828  4.768075 5.317571
1615191818.760094554 -0.048156 0.005007 0.050650  103.931258 30.747983   -0.008034 -0.107303  4.766716 5.314891
1615191818.777594303 -0.044604 0.010973 0.031057  103.931258 30.747983   -0.009283 -0.106702  4.765333 5.312220
1615191818.795055608 -0.039226 0.018492 0.045568  103.931258 30.747983   -0.010247 -0.106004  4.763935 5.309553
1615191818.812588576 -0.039073 0.021538 -0.003366  103.931258 30.747983   -0.011434 -0.105425  4.762528 5.306900
1615191818.830093158 -0.042688 0.023722 -0.027177  103.931258 30.747983   -0.011434 -0.105425  4.762528 5.306900
1615191818.847592827 -0.048720 0.025955 -0.021622  103.931258 30.747983   -0.012778 -0.104723  4.761099 5.304257
1615191818.865096197 -0.054136 0.030460 -0.015750  103.931258 30.747983   -0.014339 -0.104047  4.759646 5.301623
1615191818.882592454 -0.048244 0.028613 -0.004807  103.931258 30.747983   -0.015795 -0.103243  4.758169 5.299001
1615191818.900097391 -0.036185 0.039713 -0.031120  103.931258 30.747983   -0.016704 -0.102083  4.756679 5.296394
1615191818.917592403 -0.041701 0.045144 0.046633  103.931258 30.747983   -0.017861 -0.100850  4.755557 5.294455
1615191818.935103249 -0.045386 0.052579 0.036448  103.931258 30.747983   -0.017861 -0.100850  4.755557 5.294455
1615191818.952595337 -0.048183 0.055847 -0.014223  103.931258 30.747983   -0.019370 -0.099332  4.754995 5.293759
1615191818.970096511 -0.043501 0.053333 -0.052847  103.931258 30.747983   -0.022100 -0.097075  4.753808 5.292429
1615191818.987593564 -0.026911 0.051443 -0.103281  103.931258 30.747983   -0.022100 -0.097075  4.753808 5.292429
1615191819.005092757 -0.024926 0.050634 -0.144886  103.931258 30.747983   -0.022435 -0.095759  4.749023 5.300450
1615191819.022593267 -0.027690 0.048452 -0.111700  103.931258 30.747983   -0.023437 -0.094673  4.748396 5.299886
1615191819.040095786 -0.029378 0.048836 -0.096146  103.931258 30.747983   -0.024652 -0.093554  4.747755 5.299339
1615191819.057604996 -0.026824 0.047646 -0.133952  103.931258 30.747983   -0.025377 -0.092343  4.747105 5.298808
1615191819.075055343 -0.019076 0.054368 -0.126501  103.931258 30.747983   -0.025989 -0.090940  4.746456 5.298299
1615191819.092589065 -0.012935 0.045705 -0.156015  103.931258 30.747983   -0.025989 -0.090940  4.746456 5.298299
1615191819.110102159 -0.016825 0.039897 -0.162927  103.931258 30.747983   -0.026510 -0.090131  4.745804 5.297808
1615191819.127595898 -0.015945 0.034662 -0.190714  103.931258 30.747983   -0.027458 -0.089343  4.745303 5.297887
1615191819.145055431 -0.008880 0.033549 -0.227845  103.931258 30.747983   -0.028241 -0.088671  4.744168 5.297275
1615191819.162590739 -0.002444 0.047049 -0.228209  103.931258 30.747983   -0.028786 -0.087315  4.743038 5.296678
1615191819.180096401 0.000932 0.050853 -0.231593  103.931258 30.747983   -0.029261 -0.085870  4.741911 5.296102
1615191819.197592735 0.009369 0.055519 -0.217918  103.931258 30.747983   -0.029660 -0.084502  4.740785 5.295550
1615191819.215093036 0.014987 0.058663 -0.135201  103.931258 30.747983   -0.029620 -0.082894  4.739667 5.295023
1615191819.232592457 0.014658 0.059084 -0.132413  103.931258 30.747983   -0.029620 -0.082894  4.739667 5.295023
1615191819.250093144 0.009594 0.054689 -0.118443  103.931258 30.747983   -0.030054 -0.081611  4.738561 5.294517
1615191819.267595376 0.015056 0.052348 -0.129728  103.931258 30.747983   -0.030550 -0.080494  4.737455 5.294034
1615191819.285128140 0.013638 0.051565 -0.178608  103.931258 30.747983   -0.030531 -0.079262  4.736356 5.293569
1615191819.302593579 0.022864 0.053005 -0.189041  103.931258 30.747983   -0.030421 -0.078057  4.735266 5.293125
1615191819.320094255 0.030092 0.060455 -0.182766  103.931258 30.747983   -0.030096 -0.076602  4.734457 5.292806
1615191819.337595304 0.029960 0.071653 -0.142030  103.931258 30.747983   -0.030300 -0.074477  4.733326 5.291237
1615191819.355100005 0.030214 0.072591 -0.159796  103.931258 30.747983   -0.030582 -0.072494  4.732207 5.289699
1615191819.372598432 0.030313 0.070625 -0.160969  103.931258 30.747983   -0.030582 -0.072494  4.732207 5.289699
1615191819.390095255 0.040004 0.066207 -0.147850  103.931258 30.747983   -0.030746 -0.070884  4.731102 5.288197
1615191819.407599568 0.042961 0.061845 -0.149450  103.931258 30.747982   -0.030430 -0.069405  4.730012 5.286716
